relative_time,AccX,AccY,AccZ
30018,-1.3952209949493408,-11.750741958618164,-1.6843209266662598
30084,-5.977723121643066,-19.3978214263916,3.5446155071258545
30085,,,3.94444727897644
30175,-10.119691848754885,-18.58379364013672,-2.582146644592285
30218,-4.84287166595459,-8.35336971282959,1.4449007511138916
30284,-3.2746694087982178,,
30285,,-2.233790159225464,1.5167267322540283
30372,-1.7830817699432373,1.1252747774124146,2.98437237739563
30417,-0.6171054840087891,,
30418,-0.2076970040798187,-5.348646640777588,-1.1216834783554075
30485,-2.78625226020813,-15.849615097045898,-6.908469200134277
30551,-3.4398694038391118,-4.867412090301514,-7.756016254425049
30618,-7.325658798217773,-24.92124557495117,-4.327519416809082
30708,1.899200439453125,-7.438784599304199,4.839878559112549
30751,-4.634575843811035,-7.558494567871094,-0.2741360962390899
30820,-3.06876802444458,-7.38132381439209,-0.5063736438751221
30828,-1.1222820281982422,-6.457161903381348,-1.4951789379119873
30927,-0.8325836658477783,-6.514622688293457,-1.8997989892959597
31017,-0.6841431260108948,,
31018,-0.1741781681776046,-7.572859764099121,-1.04028058052063
31085,0.0796072036027908,-8.729259490966797,-2.2685060501098637
31151,-7.933785915374756,-18.81363677978516,-3.044227361679077
31218,-6.16686487197876,-15.301342964172363,1.4712369441986084
31284,-1.0672154426574707,-12.114660263061523,-2.2876596450805664
31352,-2.8365304470062256,-0.0837970599532127,2.850297212600708
31443,-1.8932149410247805,,
31444,,-1.4413094520568848,1.358709454536438
31484,-0.8493430614471436,-17.836803436279297,-10.4542818069458
31551,-4.189254283905029,-7.599195957183838,-6.0417680740356445
31640,-9.774927139282228,,
31641,-10.469245910644531,-12.18409252166748,-4.538209438323975
31740,3.1896753311157227,-3.7158010005950928,9.510966300964355
31819,-4.950610637664795,-6.311115741729736,0.3387795388698578
31885,-2.5971102714538574,-7.29034423828125,-1.4927847385406494
31952,0.4842272996902466,-4.611232280731201,-0.889445960521698
32018,-1.129464626312256,-7.273584842681885,2.4456770420074463
32085,0.6997054219245911,-11.149797439575195,-0.8439561128616333
32176,-3.825335741043091,-8.71489429473877,-2.3977930545806885
32274,-5.585073947906494,,
32275,-6.818088054656982,-19.23741149902344,0.3315969407558441
32351,-6.083067893981934,-9.287108421325684,0.1951274424791336
32418,-2.166153907775879,-4.19224739074707,-0.1041477769613266
32484,-1.2348095178604126,,
32485,-1.2611457109451294,-1.7621324062347412,-0.0466869324445724
32551,-2.4917654991149902,-1.4413094520568848,-1.1767501831054688
32618,-1.955464243888855,-6.452373504638672,-4.480748653411865
32711,-10.18912410736084,-8.877699851989746,-7.9643120765686035
32810,-11.64958667755127,-11.073183059692385,-15.175647735595703
32885,2.2152352333068848,-4.491522312164307,6.10401725769043
32952,-5.14932918548584,-19.359514236450195,-0.7769184708595276
33018,-0.9187749028205872,-5.714959621429443,-1.9357120990753172
33085,-6.559514045715332,-8.571242332458496,-2.7976245880126958
33151,-2.3026235103607178,-7.228095054626465,
33152,,,-4.461595058441162
33218,-1.9219454526901243,-7.790732383728027,-1.543063044548035
33285,-1.8812439441680908,-7.311892032623291,-1.2533645629882812
33351,1.391629695892334,-9.619902610778809,0.7410054206848145
33415,-2.5755624771118164,-8.69095230102539,0.729034423828125
33439,-0.7511807680130005,,
33440,,-7.508216381072998,-2.24935245513916
33503,-4.083909511566162,-15.480908393859863,-0.21188685297966
33522,-3.662529945373535,-14.369998931884766,2.412158250808716
33542,-3.2531216144561768,-14.657302856445312,3.1088709831237797
33562,-3.492541790008545,-18.10016441345215,1.2964602708816528
33582,-3.200449228286743,-19.99637222290039,-0.2454056739807129
33602,-3.2579100131988525,-20.20227432250977,0.484825849533081
33623,-4.701613426208496,-18.997989654541016,0.7721300721168518
33641,-4.320935726165772,-15.658079147338867,1.4736311435699463
33661,-2.4630351066589355,,
33662,,-13.91270637512207,2.0673930644989014
33681,-1.2826935052871704,-12.816162109375,1.9931728839874268
33701,-1.7160440683364868,-11.085153579711914,1.6053122282028198
33721,-1.9219454526901243,-9.062053680419922,1.600523829460144
33740,-2.3744494915008545,-7.615955829620361,1.969230890274048
33760,-2.9107506275177,-6.40927791595459,2.692279815673828
33780,-2.8173768520355225,-4.606443881988525,2.962824583053589
33800,-2.115875720977783,,
33801,,-2.6575639247894287,2.495955228805542
33820,-1.615487575531006,-1.3982137441635132,2.1703438758850098
33840,-2.0703859329223637,-1.4221558570861816,1.8997989892959597
33859,-2.807800054550171,,
33860,,-1.9704279899597168,1.5047557353973389
33879,-3.140594005584717,-2.2577321529388428,0.6955155730247498
33899,-2.915539026260376,-1.580173134803772,-0.0179565120488405
33919,-2.273893117904663,-0.6392518281936646,-0.3172317147254944
33938,-1.1965023279190063,,
33939,,-1.2689268589019775,-0.9157821536064148
33959,-0.6051344871520996,-3.2848446369171143,-2.6659436225891118
33978,-1.6944962739944458,,
33979,,-5.9088897705078125,-8.20373249053955
33998,-5.065532207489014,-9.813833236694336,-14.088680267333984
34018,-7.622539520263672,-11.386823654174805,-11.871648788452148
34038,-6.8156938552856445,-10.433931350708008,-10.949881553649902
34059,-5.462969779968262,-9.780313491821287,-7.305906295776367
34078,-8.960898399353027,-10.429142951965332,-6.027402877807617
34097,-12.791621208190918,,
34098,,-14.39872932434082,-5.819107055664063
34117,-6.712742805480957,,
34118,,-14.642937660217283,7.971494674682617
34137,-0.226850613951683,-19.426551818847656,7.803900241851807
34157,4.92307710647583,-22.711397171020508,6.728903770446777
34177,2.5480291843414307,-18.622100830078125,4.289212226867676
34197,-0.9666589498519896,-15.55512809753418,3.400963544845581
34216,-1.998559832572937,-11.32457447052002,3.963600873947144
34236,-3.4278981685638428,-8.516175270080566,2.70185661315918
34256,-4.615422248840332,-7.254431247711182,0.729034423828125
34276,-5.300164222717285,-6.837840080261231,-1.2988544702529907
34296,-4.246715068817139,-5.913678169250488,-2.103306293487549
34316,-3.008913040161133,-5.746084213256836,-3.276464939117432
34335,-3.0998926162719727,-7.678205013275146,-5.357026100158691
34355,-4.500500679016113,-10.321403503417969,-6.2620344161987305
34375,-5.491700172424316,-11.346121788024902,-4.882974147796631
34395,-5.235520362854004,-10.42195987701416,-3.5924997329711914
34415,-3.327341794967652,-9.318233489990234,-1.974019289016724
34434,-0.6003460884094238,,
34435,,-9.552865028381348,0.0538695380091667
34454,1.6023194789886477,-9.742006301879885,1.698686122894287
34474,1.465849995613098,-9.277531623840332,2.867056608200073
34494,-2.1302409172058105,-8.003816604614258,2.515108823776245
34514,-5.180453777313232,-7.716512203216553,1.0785878896713257
34533,-5.659294128417969,-8.01339340209961,-0.0035913025494664
34553,-4.34487771987915,-7.939172744750977,-0.0802057534456253
34573,-2.743156671524048,-8.324639320373535,0.3315969407558441
34593,-2.072780132293701,-8.757989883422852,0.7577648162841797
34613,-1.4646528959274292,-9.29189682006836,1.657984733581543
34633,-1.3090298175811768,-9.959878921508787,2.8359320163726807
34652,-2.228403329849243,-10.72841739654541,2.93888258934021
34673,-2.9682116508483887,-11.070788383483888,1.7058687210083008
34692,-3.538031578063965,-11.104307174682615,-0.0658405497670173
34712,-4.821323871612549,-11.765107154846191,-0.645237386226654
34732,-4.859631061553955,-13.318943977355955,-0.2382230758666992
34752,-1.0648212432861328,-13.785813331604004,0.9828197956085204
34772,2.416347980499268,-15.365986824035645,2.653972625732422
34791,3.359663486480713,,
34792,,-15.626954078674316,2.7904419898986816
34811,-3.490147590637207,-11.403582572937012,-0.0514753349125385
34831,-8.9249849319458,-9.727641105651855,-2.867056608200073
34851,-6.186018466949463,-10.666168212890623,-1.1504138708114624
34871,-2.609081268310547,-12.804190635681152,0.9469067454338074
34891,-0.5620388388633728,-14.147337913513184,5.886145114898682
34910,0.1849520802497863,,
34911,,-13.953407287597656,8.644265174865723
34930,-2.980182647705078,-14.06114673614502,4.404133796691895
34950,-4.766256809234619,-12.30859088897705,0.5734112858772278
34970,-4.976946830749512,-11.432312965393066,0.3962403833866119
34990,-3.906738519668579,-10.38844108581543,0.0203507151454687
35010,-2.558803081512451,-9.65581512451172,-0.1256955862045288
35030,-1.5412673950195312,-9.96706199645996,-0.4537012279033661
35049,-0.5859808921813965,,
35050,,-10.512939453125,-0.1663970202207565
35069,0.1346738487482071,-11.571176528930664,-0.3866635859012604
35089,0.5440823435783386,-12.447454452514648,-0.2454056739807129
35109,-0.739209771156311,-11.796232223510742,0.6332663297653198
35129,-2.1996726989746094,-10.101137161254885,1.04028058052063
35148,-4.119822502136231,-8.185775756835938,0.3459621369838714
35168,-4.823718070983887,-6.366182327270508,-0.2765302956104278
35188,-4.203619480133057,-5.200206279754639,-0.6404489278793335
35208,-3.293823003768921,-4.639962673187256,-0.9588778018951416
35228,-2.206855535507202,-4.24970817565918,-1.4089876413345337
35248,-1.5364789962768557,-3.725377798080444,-1.4879963397979736
35267,-1.7615338563919067,-3.313575267791748,
35268,,,-1.655590534210205
35287,-2.2882583141326904,-3.136404275894165,-1.8614917993545528
35307,-2.211643934249878,-3.011905670166016,-2.852691411972046
35327,-1.7735048532485962,-2.741360902786255,-4.071340084075928
35347,-1.3162124156951904,-2.3487119674682617,-5.591658115386963
35367,-1.0097545385360718,-2.7078421115875244,-7.574057102203369
35387,-2.0655975341796875,-3.3901896476745605,-9.285911560058594
35406,-4.263474464416504,-5.224148273468018,-9.264363288879396
35426,-5.89392614364624,-6.426037311553955,-9.307458877563477
35447,-6.248267650604248,-5.5976433753967285,-4.0545806884765625
35465,-5.1565117835998535,,
35466,,-0.9457096457481384,0.0323217213153839
35485,-10.648810386657717,,
35486,,-5.063736438751221,-16.109386444091797
35505,-14.017452239990234,-37.17955780029297,-12.235568046569824
35525,-5.386355400085449,-29.53487205505371,11.15338897705078
35545,-2.305017709732056,-1.0342950820922852,-4.325125217437744
35565,0.2232593148946762,3.064578056335449,1.0618284940719604
35585,-0.5333084464073181,,
35604,-4.055179119110107,,
35605,,-12.85207462310791,0.9564836025238036
35624,-3.207631826400757,-18.49281311035156,1.2701239585876465
35644,-0.961870551109314,-16.972496032714844,-1.0546458959579468
35664,-0.1143231317400932,-11.104307174682615,-1.1480196714401243
35684,-0.4375403523445129,-6.335057735443115,-1.258152961730957
35703,-0.7918822169303894,,
35704,,-4.599261283874512,-1.5454572439193726
35723,-1.2324153184890747,-5.193023681640625,
35724,,,-1.657984733581543
35743,-2.221220731735229,-6.837840080261231,-2.517503023147583
35763,-3.660135746002197,-8.53293514251709,-2.986766576766968
35783,-4.950610637664795,-10.010157585144045,-2.998737573623657
35803,-5.45339298248291,-10.503362655639648,-2.165555477142334
35823,-4.74231481552124,-9.69651699066162,-0.8080430626869202
35842,-3.7415387630462646,,
35843,,-9.100360870361328,0.0466869324445724
35862,-2.4893712997436523,-8.951920509338379,0.3268085420131683
35882,-0.7104793787002563,-9.057265281677246,0.2190694510936737
35902,0.2424129247665405,-10.077195167541504,0.1137245818972587
35922,-0.1885433793067932,-10.596736907958984,0.1113303825259208
35942,-2.185307502746582,,
35943,,-9.86650562286377,-0.0730231553316116
35961,-4.275445461273193,-8.89685344696045,-0.2166752517223358
35981,-4.756680011749268,-8.216899871826172,-0.2669534981250763
36001,-4.069544315338135,-8.252813339233398,-0.1496376097202301
36021,-3.071162223815918,-8.547300338745117,0.2334346622228622
36041,-1.7926585674285889,-9.069235801696776,0.4991910457611084
36060,-0.6649895310401917,-9.418789863586426,
36061,,,0.6189011335372925
36080,-0.1550245583057403,-9.569623947143556,
36081,,,0.6763619780540466
36100,-0.9570821523666382,-10.156203269958496,0.9373299479484558
36120,-2.3265655040740967,-10.36449909210205,1.2725181579589844
36140,-3.64577054977417,-10.220847129821776,1.258152961730957
36160,-3.4853591918945312,-10.256759643554688,1.191115379333496
36180,-1.912368655204773,-12.43069553375244,1.215057373046875
36199,0.2184709012508392,-13.941436767578123,2.4432828426361084
36219,-1.6298527717590332,-15.626954078674316,2.041056871414185
36239,-5.953781127929688,-16.8839111328125,-0.4393360018730163
36259,-6.700771808624268,-16.089035034179688,-2.8838160037994385
36279,-4.567538261413574,-14.19522190093994,-3.7672762870788574
36298,-2.848501443862915,-12.777854919433594,
36299,,,-1.9835960865020752
36318,-0.5835866928100586,-11.884817123413086,-1.7417817115783691
36338,1.5975310802459717,-12.54561710357666,0.0011971008498221
36358,3.4123358726501465,-14.07311725616455,1.600523829460144
36378,1.346139907836914,-13.218387603759766,0.4608838260173797
36398,-2.714426279067993,-11.681309700012209,0.9373299479484558
36417,-3.71280837059021,,
36418,,-11.154585838317873,1.85430920124054
36437,-3.312976598739624,,
36438,,-10.515334129333496,0.4632780253887176
36457,-2.455852508544922,-10.196905136108398,-1.3419500589370728
36477,-1.6035165786743164,-9.557653427124023,-2.2900538444519043
36497,-0.6530185341835022,-8.944737434387207,-1.4927847385406494
36517,-0.2005143910646438,-7.769184589385986,-0.8224082589149475
36536,-0.8780734539031982,-6.766014099121094,-1.116895079612732
36556,-1.1988965272903442,-6.481103897094727,-1.361103653907776
36576,-1.5292962789535522,-6.050147533416748,-1.4449007511138916
36596,-2.1039047241210938,-4.982333660125732,-1.657984733581543
36616,-1.8908207416534424,-4.072536945343018,-1.6101006269454956
36636,-1.61069917678833,-3.519476413726806,-1.9788076877593996
36655,-1.1773487329483032,,
36656,,-3.6296098232269287,-2.2637176513671875
36675,-0.7200561761856079,-3.691859006881714,-3.0777463912963867
36695,-0.2076970040798187,-3.8953661918640137,-3.7672762870788574
36715,0.2519897222518921,-3.9217023849487305,-3.8606503009796143
36735,0.7906851172447205,-4.01268196105957,-4.02345609664917
36755,0.9870096445083618,-4.292803764343262,-4.973954200744629
36774,0.9151836037635804,-4.915296077728272,-6.618770599365234
36794,0.5560533404350281,-6.004657745361328,-8.981847763061523
36814,0.1993172913789749,-6.476315498352051,-8.744821548461914
36834,-0.9858125448226928,-3.773261785507202,-1.2461819648742676
36854,-2.271498918533325,-11.33654499053955,-9.800664901733398
36874,-7.754220962524414,-36.33679962158203,-5.424064159393311
36893,-4.416703701019287,-19.25895881652832,4.945223808288574
36913,-4.22277307510376,-1.455674648284912,-3.271676540374756
36933,-5.707178115844727,-3.883395195007324,
36934,,,2.515108823776245
36954,-6.509235858917236,-8.437167167663574,0.3124433159828186
37005,-4.608239650726318,-10.323798179626465,-1.1767501831054688
37093,0.7930793166160583,,
37094,2.2918496131896973,-10.714052200317385,-0.5542576909065247
37139,-1.1773487329483032,-8.334216117858887,-2.0434510707855225
37204,-2.759916067123413,,
37205,,-9.885659217834473,-1.0450690984725952
37292,-1.426345705986023,-10.639832496643066,-0.2621650993824005
37339,-2.273893117904663,-8.676587104797363,-0.1352723985910415
37406,-2.7072436809539795,-9.48343276977539,0.2166752517223358
37472,-1.8932149410247805,-10.168174743652344,0.1999158412218094
37539,-2.079962730407715,-17.01080322265625,-1.0761936902999878
37605,-7.62493371963501,,
37606,,-12.789825439453123,-2.778470993041992
37672,-2.027290344238281,-14.135366439819336,1.5646108388900757
37739,-5.822100162506104,-9.63187313079834,-3.0346505641937256
37809,-2.999336242675781,-6.045359134674072,-0.8966285586357117
37872,-1.5029600858688354,-4.642356872558594,-1.8112136125564573
37939,-0.7775170207023621,-2.7916390895843506,-3.26688814163208
38025,-0.5524620413780212,-2.1475989818573,-5.543774127960205
38073,-10.18912410736084,,
38074,,-9.433155059814451,-3.3195607662200928
38164,-2.8125884532928467,,
38165,-6.305728912353516,-11.963826179504396,0.6189011335372925
38263,-2.0703859329223637,-9.938331604003906,-1.7705121040344238
38345,-0.0257376674562692,-7.218518257141113,-1.6316484212875366
38406,-2.185307502746582,-8.951920509338379,-1.5981296300888062
38472,-1.2970588207244873,,
38473,,-9.68933391571045,-1.3275848627090454
38539,-2.4127566814422607,-8.678980827331543,-0.1831564307212829
38606,-1.148618221282959,-10.737994194030762,-0.2382230758666992
38672,-3.810970544815064,-12.686874389648438,
38673,,-14.293384552001951,0.0179565120488405
38759,-0.4614823758602142,-17.12333106994629,-2.89339280128479
38805,-2.542043685913086,,
38806,,-14.599842071533203,2.120065689086914
38840,-3.133411407470703,-14.156914710998535,3.709815502166748
38937,-3.4135329723358154,-11.923124313354492,-1.1336544752120972
38938,,,-0.6667851805686951
39006,-1.325789213180542,-6.004657745361328,-0.1735796183347702
39096,-2.0416555404663086,,
39097,,-3.0861260890960693,-1.1504138708114624
39197,0.5776011347770691,-3.260902643203736,-5.728127479553223
39294,-9.856329917907717,,
39296,,-10.539276123046877,-2.962824583053589
39339,-7.677606105804443,-9.93354320526123,-3.989937067031861
39407,-1.675342679023743,-8.518569946289062,-1.7345991134643557
39492,-0.7559691667556763,,
39495,,-9.30386734008789,-2.139219284057617
39539,-2.221220731735229,-8.020575523376465,-0.4273650050163269
39631,-1.033696532249451,-8.942343711853027,-0.0634463429450988
39730,-1.426345705986023,,
39731,,-9.05247688293457,0.7003039717674255
39830,-1.1605892181396484,-10.163386344909668,-0.8176198601722717
39929,-3.5883097648620605,-15.004462242126465,-1.7729063034057615
39964,-7.2298903465271,-11.81059741973877,-2.84790301322937
40048,-3.80378794670105,-13.211204528808594,-0.4273650050163269
40147,-5.309741020202637,-10.517727851867676,
40149,,,-2.8335378170013428
40246,-0.0927753150463104,-6.813898086547852,-1.337161660194397
40272,-0.2196680009365081,-2.451662540435791,-2.474407434463501
40365,0.0460883826017379,,
40366,-0.3944447338581085,-2.964021682739258,-3.3195607662200928
40464,-4.905120849609375,,
40465,,-9.979032516479492,-23.857023239135746
40564,-9.86111831665039,-15.476119995117188,-4.58848762512207
40662,-1.898003339767456,,
40663,,-8.130708694458008,-2.608482837677002
40762,-0.9283517003059388,-7.690176010131836,-2.060210466384888
40806,-0.902015507221222,-10.27591323852539,-1.9333178997039795
40822,-3.265092611312866,-7.515398979187012,-0.8774749040603638
40865,-4.04081392288208,-7.15387487411499,-0.93254154920578
40939,-3.1477766036987305,-8.317456245422363,
40940,,,-0.6117185354232788
41006,-2.4869771003723145,-11.587936401367188,-0.7481880187988281
41072,-3.772663354873657,-14.156914710998535,-3.851073503494263
41139,-0.2986766695976257,-14.18803882598877,0.6500257849693298
41206,2.2918496131896973,-12.550405502319336,3.2190041542053223
41297,1.5831658840179443,-14.896722793579102,0.6500257849693298
41395,2.6126725673675537,,
41396,3.113060712814331,-11.623848915100098,1.7393875122070312
41495,-1.8692729473114011,-7.187393665313721,0.8008604645729065
41524,-2.965817451477051,,
41525,,-4.376600742340088,-0.7601590156555176
41614,-3.0759506225585938,-4.177882194519043,-0.8774749040603638
41652,-1.5819687843322754,-4.970362663269043,-2.6420016288757324
41672,-1.4550760984420776,-6.957550048828125,-5.582081317901611
41692,-0.0736217051744461,-10.66137981414795,
41693,,,-9.367314338684082
41712,0.3357867896556854,-14.81771469116211,-9.996989250183104
41731,-4.589086055755615,,
41732,,-23.40571594238281,-5.993884086608887
41751,-12.650362968444824,-33.17166519165039,-2.6013002395629883
41771,-0.6386532783508301,-20.685903549194336,-6.764816761016846
41791,-1.9506758451461792,-7.465120792388916,-6.429628849029541
41811,-1.6849194765090942,0.0885854661464691,0.6380547285079956
41830,2.7060465812683105,,
41831,,2.913743495941162,2.6611552238464355
41851,2.07397723197937,-4.335899353027344,2.936488389968872
41870,0.2639607489109039,-11.434707641601562,0.5446808934211731
41890,-2.1733365058898926,-14.52562141418457,-1.725022315979004
41910,-4.134187698364258,-13.826515197753906,-3.307589530944824
41930,-4.13179349899292,-10.204087257385254,-2.340332269668579
41950,-4.296993732452393,-7.477091789245605,-0.8702923059463501
41969,-4.294599533081055,-6.706159114837647,-0.2645592987537384
41989,-3.0974984169006348,-7.252037048339844,-0.1783680319786071
42009,-1.8908207416534424,,
42010,,-8.978256225585938,0.0371101275086402
42029,-0.8062474131584167,-10.532093048095703,0.1137245818972587
42049,0.0939724147319793,-11.161767959594728,0.0634463429450988
42068,-0.2771288454532623,,
42069,,-10.819397926330566,-0.3579331636428833
42088,-1.6011223793029783,,
42089,,-9.301473617553713,-0.6643909811973572
42108,-2.9753942489624023,-8.698134422302246,-0.2908954918384552
42128,-3.760692358016968,-7.996633529663086,-0.3962403833866119
42148,-4.296993732452393,-7.891288757324219,-1.3634978532791138
42168,-3.8540661334991455,-8.38688850402832,-1.5981296300888062
42187,-2.834136247634888,,
42188,,-9.035717010498049,-1.502361536026001
42207,-1.8237831592559812,-9.667786598205566,-1.7896658182144165
42227,-1.1390414237976074,-9.710882186889648,-1.928529500961304
42247,-1.083974838256836,-9.040505409240724,-1.890222191810608
42267,-1.1510124206542969,-8.583212852478027,
42287,-1.3760673999786377,-8.595184326171875,-1.0666168928146362
42307,-1.6490063667297363,-8.461109161376953,-0.6380547285079956
42326,-2.034472942352295,,
42327,,-8.08282470703125,-0.6356605291366577
42346,-2.355295896530152,-7.433996200561523,-0.8104372620582581
42366,-2.5564088821411133,-6.730101108551025,-1.222239971160889
42386,-2.465429306030273,-6.33026933670044,-0.393846184015274
42406,-2.362478494644165,-6.27280855178833,0.9540894031524658
42425,-2.120664119720459,,
42426,,-6.605602264404297,1.3204022645950315
42446,-1.8956091403961184,-7.16584587097168,2.098517894744873
42465,-2.3481132984161377,-8.611943244934082,3.671508312225342
42485,-1.3569138050079346,-9.804255485534668,0.5997475385665894
42505,0.4746504724025726,-10.08437728881836,-0.0538695380091667
42525,2.1960813999176025,-8.7484130859375,-0.4345476031303406
42545,2.2415714263916016,-7.718906402587891,-2.5294740200042725
42564,0.7212532758712769,,
42565,,-8.611943244934082,-3.822343111038208
42584,-1.5987281799316406,-13.778631210327148,-5.541379928588867
42604,-2.558803081512451,-22.72097396850586,-4.301183223724365
42624,-4.6058454513549805,-26.93476867675781,-3.400963544845581
42644,-8.498817443847656,-18.684350967407227,-1.2485761642456057
42663,-10.48361110687256,-13.208810806274414,-0.3746925592422485
42683,-8.33601188659668,-12.797008514404297,-0.1879448294639587
42703,-3.229179620742798,-10.53688144683838,1.9979612827301023
42723,-1.184531331062317,-11.295844078063965,-1.238999366760254
42743,-1.6825252771377563,-12.763489723205566,-1.7513585090637207
42762,-3.02327823638916,,
42763,,-10.522516250610352,-0.2477998733520507
42782,-3.885190725326538,-6.1267619132995605,0.872686505317688
42802,-3.71280837059021,-3.222595453262329,1.6531962156295776
42822,-2.958634853363037,-2.298433542251587,1.602918028831482
42842,-2.1805191040039062,-2.801215887069702,1.2773065567016602
42862,-1.955464243888855,-3.6176388263702393,1.1671733856201172
42882,-2.3265655040740967,-3.5482068061828613,1.169567584991455
42901,-2.896385431289673,,
42902,,-2.609679937362671,1.0833762884140017
42921,-3.111863613128662,,
42922,,-2.0901381969451904,1.1073182821273804
42941,-2.793434858322144,-1.9369091987609863,0.585382342338562
42961,-1.4766238927841189,-2.427720546722412,0.1113303825259208
42981,-0.3298012912273407,-4.185064792633057,
42982,,,-0.8200140595436096
43000,0.0293289702385664,,
43001,,-7.924807548522949,-2.804807186126709
43020,-1.0360907316207886,-14.12818431854248,-8.83819580078125
43040,-3.135805606842041,,
43041,,-15.808914184570312,-10.533289909362791
43060,-5.819705963134766,-12.373234748840332,-6.815094947814941
43080,-6.344036102294922,-9.29429054260254,-5.48152494430542
43100,-5.170876979827881,-8.2312650680542,-5.254075527191162
43120,-4.275445461273193,-8.377311706542969,-5.16549015045166
43139,-4.34487771987915,,
43140,,-8.403648376464844,-6.264428615570068
43159,-5.707178115844727,-8.56884765625,-2.539050817489624
43179,-9.18355941772461,-11.116278648376465,-1.6292542219161987
43199,-8.97765827178955,-21.61006546020508,-3.551798105239868
43219,-5.398326396942139,-29.27390480041504,3.441664934158325
43239,-2.5971102714538574,-16.15607261657715,4.322731018066406
43258,-1.129464626312256,-4.989516258239746,1.0761936902999878
43278,2.299032211303711,-3.4380736351013184,3.647566318511963
43298,3.05799412727356,-9.265560150146484,4.909310817718506
43318,0.2400187253952026,-13.283031463623049,3.139995574951172
43338,-1.5652093887329102,-12.646173477172852,0.2166752517223358
43358,-2.472611904144287,-9.691728591918944,-0.6093243360519409
43377,-3.291428804397583,-8.300697326660156,-0.9636662006378174
43397,-4.471770286560059,-8.161833763122559,-2.258929252624512
43417,-4.744709014892578,-8.1139497756958,-3.4967315196990967
43437,-3.806182146072388,-7.702147006988525,-3.776853084564209
43457,-2.5540146827697754,-7.850587368011475,-3.779247283935547
43476,-1.3880383968353271,-7.565677165985107,-2.912546396255493
43496,-0.3633201122283935,-6.768408298492432,-1.2437877655029297
43516,0.1466448605060577,-6.440402507781982,-0.1999158412218094
43536,-0.0209492649883031,-7.022193431854248,-0.1352723985910415
43556,-0.3154360651969909,-7.06528902053833,-1.114500880241394
43576,-0.6817489266395569,,
43577,,-5.4875102043151855,-0.2214636504650116
43596,-0.9666589498519896,-3.811569213867188,3.760093688964844
43615,-0.7224503755569458,,
43616,,-4.728548526763916,2.998737573623657
43635,-0.8948329091072083,-8.808267593383789,0.333991140127182
43655,-1.1701661348342896,-10.232817649841309,-1.3012486696243286
43675,-1.3521254062652588,-6.9240312576293945,-1.8519150018692017
43695,-2.4869771003723145,-6.050147533416748,-1.942894697189331
43714,-3.116652011871338,-7.829039573669434,-1.136048674583435
43734,-1.998559832572937,-10.615890502929688,-1.8638859987258911
43754,0.1993172913789749,-16.476896286010742,-1.3251906633377075
43774,-0.1238999366760253,-29.03448486328125,-3.1711201667785645
43794,-0.9810241460800172,-22.946029663085938,-1.207874774932861
43814,-6.8827314376831055,-13.220781326293944,2.991554975509644
43833,-10.754155158996582,,
43834,,-11.367670059204102,3.733757495880127
43853,-10.478822708129885,-14.595053672790527,-1.483207941055298
43873,-5.805340766906738,-14.954183578491213,-3.889380693435669
43893,-2.78625226020813,-13.654131889343262,-2.3020248413085938
43912,-2.448669672012329,-11.063606262207031,-0.4225766062736511
43932,-2.4223334789276123,-8.860940933227539,1.2868833541870115
43952,-2.9514522552490234,-6.773196697235107,1.6915035247802734
43972,-3.265092611312866,-5.195417881011963,2.036268472671509
43992,-3.308188199996948,-4.599261283874512,2.029085874557495
44012,-3.2579100131988525,-4.4508209228515625,1.942894697189331
44031,-2.824559450149536,,
44032,,-3.588908433914185,1.648407816886902
44051,-2.2810757160186768,-2.1978771686553955,2.033874273300171
44071,-2.034472942352295,-1.0749965906143188,2.0482394695281982
44091,-1.519719481468201,-0.3830722570419311,1.6699557304382324
44111,-0.959476351737976,-1.0031704902648926,0.9852139949798584
44131,-0.7368155717849731,-2.607285737991333,0.2310404628515243
44150,-0.8637082576751709,-4.367023944854736,-0.1927332431077957
44170,-0.595557689666748,,
44171,,-6.6630635261535645,-0.812831461429596
44190,-1.0001777410507202,-10.639832496643066,-6.204573631286621
44210,-3.1741127967834477,-14.25268268585205,-9.865307807922363
44230,-3.7846343517303462,-11.695674896240234,-9.388861656188965
44250,-3.94983434677124,-7.960720539093018,-7.372944355010986
44272,-4.335300922393799,-7.024587631225586,-7.51659631729126
44289,-4.045602321624756,-7.5968017578125,
44290,,,-2.385822057723999
44309,-7.725490570068359,-13.388376235961914,2.98437237739563
44329,-10.91456699371338,-21.667526245117188,5.203797340393066
44349,-7.775768756866455,-32.78619766235352,-5.965153694152832
44368,1.3628993034362793,,
44369,,-21.167137145996094,-1.918952703475952
44389,0.3860650360584259,-5.748478412628174,5.17746114730835
44408,2.4642322063446045,-2.145204782485962,8.47667121887207
44428,-2.020107746124268,-11.21204662322998,7.545326709747314
44448,-3.50930118560791,-18.53351593017578,-0.951695203781128
44468,-1.2611457109451294,-17.73863983154297,-4.344278812408447
44488,-1.7639280557632446,-11.645397186279297,0.2717418968677521
44508,-4.012083530426025,-7.881711959838867,-0.3292027413845062
44527,-5.046378612518311,-5.13316822052002,-0.6931213736534119
44547,-5.948992729187012,-4.927267074584961,-1.0809820890426636
44567,-4.986523628234863,-6.0621185302734375,-1.2030863761901855
44587,-2.8628666400909424,-6.555324077606201,-0.8056488633155823
44607,-1.225232720375061,-6.3949127197265625,0.0251391176134347
44626,0.1993172913789749,,
44627,,-6.54574728012085,-0.5734112858772278
44646,0.8553285598754883,-7.132327079772949,-2.3259668350219727
44666,0.165798470377922,-6.936002254486084,-2.4887726306915283
44686,-1.9075802564620967,-6.610390663146973,-0.992396593093872
44706,-3.116652011871338,-7.125144481658936,-0.7433996200561523
44725,-2.163759708404541,-7.175422668457031,-0.0131681095808744
44745,-0.1071405261754989,,
44746,,-7.908048152923584,-0.0251391176134347
44765,1.2431892156600952,-9.131484985351562,-0.7649474143981934
44785,1.389235496520996,-9.090784072875977,-0.6236895322799683
44805,0.6422445774078369,-8.540117263793945,-0.1879448294639587
44825,-0.2771288454532623,-7.927201747894287,-0.4369418025016784
44844,-0.6649895310401917,,
44845,,-8.427590370178223,-0.0347159244120121
44864,-2.020107746124268,,
44865,,-11.975796699523926,0.2885012924671173
44884,-4.024054527282715,-18.145654678344727,1.3922282457351685
44905,-7.8092875480651855,-19.60611724853516,0.5734112858772278
44924,-9.236231803894045,-14.283807754516602,-0.1400607973337173
44944,-7.811681747436523,-13.563152313232422,3.1495723724365234
44964,-6.997653007507324,-16.031574249267578,3.5446155071258545
44983,-6.396708488464356,,
44984,,-16.697162628173828,-0.1185129806399345
45003,-4.593874454498291,-15.835249900817873,-2.807201385498047
45023,-2.6210522651672363,-14.216769218444824,-2.383427858352661
45043,-1.1581950187683103,-12.591106414794922,-1.1121066808700562
45063,-0.1574187576770782,-9.60793113708496,0.7864952683448792
45084,-1.668160080909729,-5.913678169250488,0.8607155084609985
45183,-3.1860837936401367,,
45184,,-3.883395195007324,1.6412252187728882
45268,-2.515707492828369,,
45269,,-3.466804027557373,1.4879963397979736
45335,0.3621230125427246,-5.681440830230713,-0.5805938839912415
45401,-5.697601318359375,,
45402,-4.349666118621826,-12.789825439453123,-8.35456657409668
45468,-3.4326868057250977,-7.929595947265625,-3.09689998626709
45535,-9.178771018981934,-23.113622665405277,-0.0227449163794517
45602,3.953425645828247,-6.387730121612549,7.988254070281982
45668,-4.646546840667725,-13.934253692626951,-0.5734112858772278
45735,-3.4326868057250977,-5.626373767852783,-1.5286977291107178
45802,-1.1629834175109863,-7.283161640167236,-0.1544260084629058
45819,0.4794389009475708,-7.438784599304199,-1.9931728839874268
45917,-1.103128433227539,-7.477091789245605,-0.6380547285079956
46002,-2.834136247634888,-11.635820388793944,-0.2645592987537384
46069,-3.8827965259552,-13.237541198730469,-3.185485363006592
46136,-5.824494361877441,-15.91665267944336,0.4106055796146393
46204,-2.101510524749756,-16.28057098388672,-2.855085611343384
46268,-1.8644845485687256,-7.7883381843566895,0.5518634915351868
46335,-2.2643163204193115,-3.162740468978882,0.951695203781128
46432,-0.8804676532745361,-1.7693150043487549,-0.1831564307212829
46467,-3.6553473472595215,,
46468,,-5.971138954162598,-6.6355299949646
46534,-5.920262336730957,,
46535,-6.693589210510254,-7.6566572189331055,-8.323442459106445
46601,-9.039907455444336,,
46602,,-5.595249176025391,-4.971560001373291
46668,-23.28061866760254,-25.237279891967773,-25.30312156677246
46734,14.684237480163574,1.8794482946395876,6.951564788818359
46802,-11.01272964477539,-19.18952751159668,-5.100846767425537
46810,-0.8206126093864441,-7.898471355438232,-4.327519416809082
46868,-0.8756792545318604,-8.980650901794434,-2.993949174880981
46948,-3.581127166748047,-8.40843677520752,-2.7664999961853027
47001,-3.3464953899383545,-7.232883453369141,-3.532644510269165
47068,-3.767874956130981,-7.642292022705078,-2.7042508125305176
47135,-1.488594889640808,-6.445190906524658,-0.9876081943511964
47201,0.778714120388031,,
47202,1.731606364250183,-9.153033256530762,0.1185129806399345
47268,1.4778209924697876,-9.255983352661133,-2.050633668899536
47335,-4.340089321136475,-17.841590881347656,-2.313995838165283
47402,-3.810970544815064,-15.689203262329102,-0.1376665979623794
47468,-2.0416555404663086,-19.045873641967773,-0.2334346622228622
47535,-2.324171304702759,-12.42351245880127,1.2653355598449707
47602,-3.0400376319885254,-7.029376029968262,2.0482394695281982
47682,-2.4869771003723145,-1.702277421951294,1.1767501831054688
47735,-2.9753942489624023,-2.432508945465088,0.2669534981250763
47801,-2.6162638664245605,,
47802,,-3.296815633773804,-0.8391677141189575
47868,-4.7854108810424805,-11.817779541015623,-11.524490356445312
47937,-5.817311763763428,-8.628703117370605,-6.199785232543945
48003,-3.006518840789795,-13.960590362548828,9.115922927856444
48069,0.9367313981056212,-10.723628997802734,4.20541524887085
48136,-5.6209869384765625,-9.694122314453123,-1.5909470319747925
48221,-2.305017709732056,-6.94079065322876,-2.562992811203003
48268,-3.751115560531616,-9.586383819580078,0.9852139949798584
48335,-2.714426279067993,-9.41400146484375,1.258152961730957
48415,-2.496553897857666,-8.401253700256348,1.037886381149292
48468,-2.3122003078460693,,
48469,,-11.453861236572266,0.4106055796146393
48535,-3.447052001953125,-11.882423400878906,0.2549824714660644
48602,2.780266761779785,-15.526397705078123,-0.4896142482757568
48668,-7.770980358123779,,
48669,,-11.77707862854004,0.6524199843406677
48752,-0.5811924338340759,,
48753,,-14.121001243591309,7.0808515548706055
48832,-2.032078742980957,-11.240777015686035,-0.0323217213153839
48867,0.3357867896556854,-8.487444877624512,1.0187327861785889
48950,-1.4000093936920166,,
48951,-3.9881415367126474,-5.635950565338135,1.4616601467132568
49001,0.5009866952896118,-3.529053211212158,-2.220622062683105
49069,-0.5404910445213318,-2.964021682739258,-2.9053637981414795
49146,-1.811812162399292,-3.466804027557373,-6.843825340270996
49202,-3.7894227504730233,3.2992098331451416,6.721721172332764
49288,-16.138715744018555,-42.686222076416016,13.961787223815918
49335,-2.5755624771118164,-17.108964920043945,0.6332663297653198
49402,-1.2779051065444946,-15.13614273071289,-2.1583728790283203
49486,-2.5109190940856934,-5.57370138168335,-2.007538080215454
49535,-1.7088614702224731,-8.609549522399902,-2.139219284057617
49602,-0.6266822814941406,-10.125079154968262,-1.9835960865020752
49684,-3.691260576248169,-9.131484985351562,-1.7322049140930176
49734,-2.204461097717285,,
49735,-3.224391222000122,-8.971074104309082,-0.0873883590102195
49804,-3.597886562347412,-8.022970199584961,0.0466869324445724
49824,-1.5245078802108765,-10.433931350708008,0.872686505317688
49922,0.352546215057373,,
49923,-1.8309657573699951,-10.053253173828123,2.9747955799102783
50021,0.1131260320544242,-17.401058197021484,1.373074650764465
50022,,,-1.646013617515564
50122,1.7579425573349,-11.829751014709473,-1.6675615310668943
50139,-6.679224014282227,-12.74912452697754,0.5207388401031494
50159,-2.913144826889038,-13.163320541381836,-0.7362170219421387
50178,0.5776011347770691,,
50179,,-13.589488983154297,-2.7712883949279785
50200,2.1122844219207764,-13.357251167297363,-2.917334794998169
50218,2.5528175830841064,-11.894393920898438,-1.2318167686462402
50238,0.2160767018795013,-10.733205795288086,-0.6667851805686951
50258,-4.26826286315918,-10.079588890075684,-1.2509703636169434
50278,-5.5778913497924805,-8.49941635131836,-0.690727174282074
50298,-4.5603556632995605,-4.821922302246094,-0.2813186943531036
50317,-3.9665937423706055,-1.8602946996688845,-0.1879448294639587
50337,-2.5085248947143555,-1.455674648284912,-0.6189011335372925
50357,-1.354519605636597,-3.778050184249878,-0.7266402244567871
50377,-1.0432734489440918,-2.7724854946136475,-0.9636662006378174
50397,-1.0480618476867676,-0.3136404156684875,-1.974019289016724
50416,0.1107318252325058,0.3447650372982025,-3.8606503009796143
50436,1.875258445739746,-0.1340752989053726,-6.053739070892334
50456,2.914341926574707,-0.8906430602073669,
50457,,,-7.705738067626953
50476,2.7994203567504883,-1.7166426181793213,-9.333795547485352
50496,1.875258445739746,-2.449268341064453,-10.506954193115234
50515,0.6590040326118469,,
50516,,-3.84269380569458,-10.176554679870604
50535,-1.450287699699402,,
50536,,-4.280832767486572,-6.640318393707275
50555,-7.253832817077637,-11.66694450378418,-11.907562255859377
50575,-11.118074417114258,,
50576,,-22.349872589111328,-10.581174850463867
50596,-4.826112270355225,-15.018827438354492,-1.238999366760254
50615,-6.87794303894043,-2.540247917175293,-0.3579331636428833
50634,-4.452616691589356,,
50635,,-5.951985359191895,-0.456095427274704
50654,-6.715137004852295,-11.231200218200684,-2.9700071811676025
50674,-6.487688064575195,-14.18803882598877,-3.578134536743164
50695,-2.824559450149536,-12.732364654541016,-2.70185661315918
50714,-0.2053027898073196,-9.591172218322754,-2.383427858352661
50734,0.7595604658126831,-7.793126583099365,-2.076969861984253
50754,0.8912416100502014,-7.422025203704834,-2.0841526985168457
50773,0.7715315222740173,-7.817068576812744,-1.9524714946746824
50793,0.3621230125427246,,
50794,,-8.439560890197754,-1.8160020112991333
50813,-0.4088099300861358,-8.827422142028809,-1.5765818357467651
50833,-1.182137131690979,-8.65982723236084,-1.222239971160889
50853,-1.7854759693145752,-8.315062522888184,-1.07379949092865
50872,-1.8261773586273196,-8.339004516601562,-0.4656722247600555
50892,-1.4335283041000366,,
50893,,-8.56645393371582,-0.3555389642715454
50912,-1.127070426940918,-9.679757118225098,-0.393846184015274
50932,-1.0959458351135254,-10.594342231750488,-0.3866635859012604
50952,-0.6913257241249084,-10.323798179626465,-0.2765302956104278
50971,-0.8134300112724304,-9.27034854888916,
50972,,,-0.4393360018730163
50992,-0.9044097065925598,-8.769960403442383,-0.3579331636428833
51011,-1.2898762226104736,-8.918401718139648,-0.0849941596388816
51031,-1.7495628595352173,-9.083600997924805,-0.3196259140968323
51051,-1.7687164545059204,-8.968679428100586,-0.3627215623855591
51071,-1.347337007522583,-8.549694061279297,-0.9014169573783876
51090,-1.1079168319702148,-8.746018409729004,
51093,,,-1.234210968017578
51110,-1.0720038414001465,-9.478644371032717,-1.071405291557312
51130,-1.5388731956481934,-10.819397926330566,-0.4465186297893524
51150,-2.4343044757843018,-12.593501091003418,0.5758054852485657
51170,-3.7415387630462646,-13.85524559020996,1.049857497215271
51191,-4.639364242553711,-14.92066478729248,0.9636662006378174
51210,-4.809352874755859,-15.837644577026367,0.6548141837120056
51229,-4.6273932456970215,-14.913482666015623,-1.6843209266662598
51249,-4.13179349899292,-13.747506141662598,-3.1663317680358887
51269,-1.8501193523406985,-13.40513515472412,-2.4025814533233643
51289,0.4985924959182739,-14.113819122314451,1.294066071510315
51308,-0.226850613951683,,
51309,,-15.662867546081545,3.9013516902923584
51328,-1.8668787479400637,-16.05312156677246,3.384204149246216
51348,-4.567538261413574,-13.330915451049805,1.483207941055298
51368,-5.008071422576904,-12.030863761901855,1.9476830959320068
51389,-3.3057940006256104,-11.798625946044922,0.4704606235027313
51408,-1.9961656332015991,-11.07797145843506,-2.117671489715576
51428,-1.936310648918152,-9.418789863586426,-2.862268209457397
51447,-1.9171570539474487,-7.144298076629639,
51448,,,-2.098517894744873
51467,-2.3289597034454346,-6.203376770019531,-0.9660604000091552
51488,-1.787870168685913,-5.726930618286133,-0.6380547285079956
51507,-0.1813607811927795,-4.908113479614258,-0.5183446407318115
51527,0.019752163439989,-4.089296340942383,-0.7649474143981934
51546,-0.942716896533966,-2.741360902786255,-1.1863269805908203
51566,-1.5628151893615725,-1.6831238269805908,-1.48081374168396
51588,-1.347337007522583,-1.745373010635376,-1.3491326570510864
51606,-0.7032967209815979,-2.432508945465088,-2.1703438758850098
51626,-0.0903811156749725,-2.8658595085144043,-3.7624878883361816
51646,-0.0161608606576919,-2.604891538619995,-5.227739334106445
51666,-0.6625953316688538,-2.671929121017456,-5.83347225189209
51685,-1.5867571830749512,-3.514688014984131,
51686,,,-6.410475254058838
51705,-2.403179883956909,-3.9408559799194336,-8.258798599243164
51725,-3.289034605026245,-4.240131378173828,-10.93312168121338
51745,-4.562749862670898,-3.308786630630493,-5.869385242462158
51765,-6.193201065063477,-3.914519786834717,-12.163742065429688
51786,-9.351153373718262,-19.10573005676269,-11.639411926269531
51804,-3.289034605026245,-16.019603729248047,2.582146644592285
51824,-5.6640825271606445,-4.580107688903809,-3.3219549655914307
51844,-3.1501708030700684,-6.315904140472412,-2.4025814533233643
51864,-3.293823003768921,-14.283807754516602,-1.1647791862487793
51885,-4.591480255126953,-14.915876388549805,-2.3355438709259038
51903,-1.953070044517517,,
51904,,-10.891223907470703,-1.258152961730957
51923,-1.5245078802108765,-9.287108421325684,-1.84233820438385
51943,-1.9051860570907595,-9.308655738830566,-1.720233917236328
51963,-1.4071919918060305,-9.136273384094238,-1.437718152999878
51984,-0.8110358119010925,-8.918401718139648,-1.4712369441986084
52002,-0.961870551109314,,
52003,,-9.064447402954102,-1.6747441291809082
52022,-1.3856441974639893,,
52023,,-8.765172004699707,-1.521515130996704
52042,-2.029684543609619,-8.219294548034668,-0.9014169573783876
52062,-2.283469915390014,-7.903259754180908,-0.9564836025238036
52083,-1.0241197347640991,-7.989450931549072,-1.057040095329285
52101,-0.0927753150463104,,
52102,,-8.365341186523438,-1.361103653907776
52122,-0.1382651478052139,-9.009381294250488,-1.849520802497864
52141,-0.5141547918319702,-9.72285270690918,-1.8710685968399048
52161,-0.9738415479660034,-9.775525093078612,-1.234210968017578
52182,-1.371279001235962,-8.789113998413086,-0.6811503767967224
52201,-1.7375918626785278,-7.94635534286499,-0.4776432514190674
52221,-2.0488381385803223,-7.711723804473877,-0.0969651713967323
52240,-2.5300726890563965,,
52241,,-8.118738174438477,0.1759738177061081
52260,-3.080739021301269,-9.289502143859863,-0.1304839998483657
52281,-3.0615854263305664,-10.66856288909912,-0.5949591398239136
52300,-2.0488381385803223,-11.113883972167969,-0.645237386226654
52320,-1.61069917678833,-11.305420875549316,-0.4584896266460418
52340,-2.024896144866944,-12.148179054260254,0.0131681095808744
52359,-3.255515813827514,-12.986149787902832,
52360,,,0.4944026470184326
52380,-4.541202068328857,-14.216769218444824,-0.0155623108148574
52399,-2.522890090942383,-14.812926292419434,-0.3004723191261291
52419,-1.3808557987213137,-14.630966186523438,1.2270283699035645
52439,-4.672883033752441,-13.31415557861328,1.1504138708114624
52459,-6.602609634399414,-11.468226432800291,-1.9955670833587649
52479,-4.859631061553955,-10.812214851379396,-2.802412986755371
52498,-1.974617838859558,-11.042057991027832,-0.3220201432704925
52518,-0.2436100244522094,-13.261483192443848,0.6619967818260193
52538,0.3022679686546325,-14.542381286621094,1.4544775485992432
52558,-2.321777105331421,-13.539210319519045,1.4544775485992432
52579,-4.541202068328857,-11.07797145843506,2.8790276050567627
52597,-4.395155906677246,-10.407594680786133,2.8215668201446533
52617,-2.8580782413482666,-10.225635528564451,0.1975216418504715
52637,-1.787870168685913,-9.971850395202637,-2.270900249481201
52657,-1.4143747091293335,-9.390059471130373,-2.5007436275482178
52677,-1.5532383918762207,-8.090007781982422,-1.3036428689956665
52696,-2.316988706588745,,
52697,,-6.773196697235107,-1.3084312677383425
52716,-2.496553897857666,-6.648698329925537,-1.0642226934432983
52736,-1.7423802614212036,-6.861782073974609,-1.4975731372833252
52756,-1.2898762226104736,-6.763619899749756,-1.622071623802185
52777,-1.1797429323196411,-5.937620162963867,-1.7561469078063965
52796,-1.613093376159668,-4.881777286529541,-2.2373814582824707
52815,-1.840542554855347,,
52816,,-3.9480385780334473,-2.5055320262908936
52835,-1.3976151943206787,-3.3470940589904785,-2.6659436225891118
52855,-0.5548562407493591,-3.0573954582214355,-3.185485363006592
52875,0.4267664551734924,,
52876,,-3.28963303565979,-3.958812475204468
52895,0.8816647529602051,-3.442862033843994,-4.531026840209961
52915,0.8409633636474609,-3.5865142345428467,-4.839878559112549
52934,-0.0089782560244202,-4.16112232208252,-6.250063419342041
52954,-0.6889315247535706,-5.171475887298584,-10.327388763427734
52975,-2.2427685260772705,-9.124302864074709,-19.5402774810791
52994,-7.148487567901611,-14.121001243591309,-9.633070945739746
53014,-5.75985050201416,-10.781089782714844,1.4975731372833252
53034,-3.667318344116211,-5.413290023803711,-1.373074650764465
53053,-3.5643677711486816,-9.370905876159668,-0.9780313968658448
53074,-6.0303955078125,-12.344504356384276,-1.1552022695541382
53093,-8.199542045593262,-12.24155330657959,-2.9676129817962646
53113,-4.519654273986816,-9.751583099365234,-1.9955670833587649
53133,-1.8477251529693604,-9.002198219299316,-1.358709454536438
53153,-0.7727286219596863,-9.20091724395752,-1.6172832250595093
53173,0.1753752678632736,-9.126696586608888,-1.2629413604736328
53192,0.196923092007637,-8.640673637390137,-1.4927847385406494
53212,-0.7368155717849731,-8.585607528686523,-1.3706804513931274
53232,-1.6657658815383911,-8.925583839416504,-1.533486247062683
53252,-2.249951124191284,-9.162610054016112,-1.3634978532791138
53272,-2.738368272781372,-8.901641845703125,-1.047463297843933
53291,-2.606687068939209,-8.389283180236816,-0.5949591398239136
53311,-2.2236149311065674,-8.489839553833008,0.1328781992197036
53331,-1.7280150651931765,-9.265560150146484,0.4393360018730163
53350,-1.5340847969055176,-10.050858497619627,
53351,,,0.3531447649002075
53372,-1.225232720375061,-10.42195987701416,-0.2094926536083221
53390,-0.8349778652191162,-10.826580047607422,-0.3100491166114807
53410,-0.5141547918319702,-9.971850395202637,-0.0634463429450988
53430,-1.0983400344848633,-8.880094528198242,0.0514753349125385
53450,-2.115875720977783,-8.018181800842285,-0.3315969407558441
53470,-2.654571056365967,-8.027758598327637,-0.7003039717674255
53489,-2.415150880813598,-8.508993148803711,-0.8176198601722717
53509,-1.8692729473114011,-9.241618156433104,-0.5351040959358215
53529,-1.6657658815383911,-10.019734382629396,-0.1304839998483657
53549,-1.8956091403961184,-10.194510459899902,0.0466869324445724
53570,-3.049614429473877,-10.017339706420898,0.0825999602675437
53620,-4.4741644859313965,,
53621,,-11.094730377197266,0.3363853394985199
53688,-2.2643163204193115,-13.2710599899292,0.3986345827579498
53764,-7.158064365386963,,
53765,,-14.161703109741213,1.035492181777954
53821,0.4267664551734924,-12.361263275146484,0.5973533391952515
53829,-4.105457305908203,-11.013327598571776,1.9572598934173584
53927,-5.120598793029785,-9.775525093078612,
53928,,-10.56800651550293,1.7848774194717407
53953,-0.3106476664543152,,
53954,,-9.32302188873291,-1.681926727294922
54021,-0.4854243993759155,-8.283937454223633,-1.1767501831054688
54106,-0.6554127335548401,-6.303933143615723,-2.45285964012146
54154,0.5153518915176392,,
54155,,-3.622427225112915,-3.3865983486175537
54221,-0.5548562407493591,-3.801992416381836,-3.618835926055908
54304,-0.6649895310401917,-3.177105665206909,-9.9586820602417
54354,-7.907449722290039,-39.152381896972656,19.164386749267575
54423,-1.7184382677078247,0.8379706144332886,4.698620796203613
54502,-2.259527921676636,-12.555193901062012,-0.8655039072036743
54554,-0.4423287510871887,-6.904877662658691,-2.582146644592285
54641,-0.4423287510871887,-8.769960403442383,-2.299630641937256
54728,-2.316988706588745,,
54729,-2.4438812732696533,-9.404424667358398,-1.1216834783554075
54754,-2.233191728591919,-9.361329078674316,-0.1855506300926208
54820,-2.4630351066589355,-8.978256225585938,-0.1592144072055816
54888,-2.211643934249878,-9.04290008544922,-0.50876784324646
54954,-2.807800054550171,-9.064447402954102,-0.669179379940033
55037,-2.024896144866944,-9.57201862335205,-0.4369418025016784
55038,,,-0.243011474609375
55087,-2.635417461395264,-11.152191162109377,-1.4927847385406494
55176,-0.6554127335548401,-15.447389602661133,1.5454572439193726
55265,-4.799776077270508,-7.718906402587891,-4.490325450897217
55354,2.4426841735839844,-17.343597412109375,2.804807186126709
55421,-3.5476083755493164,-12.239158630371094,-3.3865983486175537
55487,-2.166153907775879,,
55488,,-5.638344764709473,1.0019733905792236
55572,-2.158971309661865,,
55573,-1.4766238927841189,-2.8634653091430664,0.1233013868331909
55622,-0.8565256595611572,-2.3080103397369385,-0.4106055796146393
55684,-0.497395396232605,-9.502586364746094,-2.491166830062866
55771,-10.986392974853516,-22.555774688720703,-10.466252326965332
55812,7.877521991729736,-5.535394191741943,5.56053352355957
55888,1.614290475845337,-14.73631191253662,-0.2047042399644851
55954,-6.724713802337647,-6.995857238769531,
55955,,,0.1640028208494186
56021,-0.353743314743042,-10.685321807861328,0.4944026470184326
56088,-2.2906525135040283,-8.932766914367676,-0.930147349834442
56155,-3.2603042125701904,-8.506598472595215,-0.6117185354232788
56222,-1.4574702978134155,-8.35336971282959,0.0179565120488405
56287,-0.823006808757782,-8.456320762634277,0.8176198601722717
56354,0.4531026780605316,,
56355,0.7140706777572632,-7.539340972900391,-0.9900023937225342
56421,-0.5428852438926697,-12.076353073120115,-3.750516891479492
56505,-7.660846710205078,-17.978059768676758,1.3515268564224243
56554,-2.259527921676636,-9.23682975769043,0.0179565120488405
56621,-4.387973308563232,-5.60722017288208,0.9085995554924012
56687,-1.955464243888855,,
56688,-2.42472767829895,-4.795586109161377,1.0594342947006226
56754,-3.5284547805786133,-2.0901381969451904,0.3459621369838714
56803,-0.964264750480652,-6.179434776306152,-2.139219284057617
56888,-6.34643030166626,,
56894,,-13.306973457336426,-8.60116958618164
56956,-5.01285982131958,-7.706935405731201,-3.132812976837158
57040,-4.909909248352051,-27.1550350189209,-3.008314371109009
57088,-2.034472942352295,-16.88630485534668,-1.2054805755615234
57154,-4.706401824951172,,
57155,-5.292981624603272,-8.547300338745117,0.0849941596388816
57238,-3.669712543487549,-7.15387487411499,-0.9181763529777528
57288,-0.4997895956039428,-7.079654216766357,-1.3563152551651
57354,-1.4766238927841189,-7.55131196975708,-2.9316999912261963
57421,-1.3593080043792725,-6.423643112182617,1.057040095329285
57488,0.5345055460929871,-9.586383819580078,-0.3770867586135864
57575,-2.633023262023926,-14.82968521118164,-2.3977930545806885
57675,-7.996035099029541,-13.4506254196167,0.750582218170166
57774,-2.803011655807495,-7.872135162353516,0.8631097078323364
57821,-3.277063608169556,-2.056619167327881,1.04028058052063
57833,-1.5269020795822144,,
57834,,-0.6320692300796509,2.0003554821014404
57887,-1.1965023279190063,,
57888,-0.135870948433876,-0.4118026793003082,1.6340426206588743
57971,0.8816647529602051,,
57972,,-3.7014358043670654,-0.3244143426418304
58021,-3.135805606842041,-11.305420875549316,-9.048885345458984
58088,-4.818929672241211,-5.92325496673584,-5.443217754364014
58154,-9.09257984161377,-16.58942413330078,4.550180435180664
58221,2.2918496131896973,-6.229712963104248,5.88853931427002
58311,-3.2866404056549072,-14.207192420959473,
58312,,-8.801085472106934,-2.0817582607269287
58408,-4.016871929168701,,
58409,,-6.7492547035217285,-1.6172832250595093
58507,-1.3353660106658936,,
58508,,-5.305551052093506,-0.707486629486084
58554,2.768295764923096,-8.348581314086914,-1.92134690284729
58622,-2.451063871383667,-11.489773750305176,-2.9747955799102783
58669,-8.15644645690918,,
58670,-9.413402557373049,-18.19832801818848,-3.336320161819458
58734,-6.099827289581299,-12.466608047485352,1.1336544752120972
58765,-0.4878185987472534,-10.946290016174316,-0.4129997789859772
58825,-2.118269920349121,-1.6328455209732056,1.701080322265625
58924,-2.010530948638916,-1.4484920501708984,2.1703438758850098
58965,-1.7399860620498655,-7.328651428222656,-1.0546458959579468
59062,-1.8860323429107664,-16.302120208740234,-12.020090103149414
59162,-4.505289077758789,-16.847997665405273,0.4704606235027313
59260,-1.1534066200256348,-12.34210968017578,3.7193922996521
59299,-4.984129428863525,-6.780379295349121,0.1951274424791336
59366,-4.70879602432251,-6.387730121612549,-0.5111620426177979
59458,-0.5740098357200623,,
59459,,-5.793968200683594,0.1280897855758667
59504,-0.4782418012619018,-7.704541206359863,
59505,,,-0.6236895322799683
59567,0.4938040971755981,-7.134721279144287,-0.1089361757040023
59657,-1.20368492603302,,
59658,,-8.89685344696045,-2.8095955848693848
59698,-6.164470672607422,,
59699,-7.505223751068115,-20.54464530944824,1.1336544752120972
59796,-8.936956405639648,-18.51914978027344,-2.388216257095337
59815,-3.380014181137085,,
59816,,-9.928754806518556,0.2166752517223358
59899,-3.928286552429199,-6.715735912322998,1.138442873954773
59994,-1.2348095178604126,-3.878606796264648,
59995,,,1.171961784362793
59996,,,0.5901707410812378
60031,-0.353743314743042,,
60032,,-1.8579005002975464,-2.050633668899536
60099,-0.657806932926178,-3.4787750244140625,-2.3546974658966064
60194,-7.31847620010376,-9.672574996948242,-7.902062892913818
60231,-5.527613162994385,,
60232,,-2.8203697204589844,-5.438429355621338
60331,-17.565658569335938,-38.12287521362305,-15.03199577331543
60365,-11.249754905700684,-19.282899856567383,0.9564836025238036
60432,-6.444592475891113,-19.53668594360352,-0.1089361757040023
60529,-3.8540661334991455,-5.643133640289307,
60530,,,-3.5398271083831787
60565,-1.854907751083374,-7.778761386871338,-2.4145524501800537
60632,-2.439092874526977,-6.268020153045654,-1.85430920124054
60727,-3.705625772476196,,
60728,-3.581127166748047,-8.401253700256348,-1.6508020162582395
60808,-0.7320271730422974,-8.176198959350586,0.6165069341659546
60832,-1.2946646213531494,-10.481815338134766,-2.5965118408203125
60926,-2.3457190990448,-11.520898818969728,-2.1775264739990234
60965,-2.297835111618042,-7.41484260559082,-1.234210968017578
61065,-4.443039894104004,-7.450755596160889,-2.608482837677002
61098,-8.328828811645508,-13.646949768066406,0.8702923059463501
61166,-8.407837867736816,-15.931017875671388,3.4608185291290283
61263,-0.6147112846374512,-17.1807918548584,-0.8846575021743774
61298,-1.0552444458007812,-11.125855445861816,1.4975731372833252
61366,-0.8277952671051025,-9.615114212036133,1.2006921768188477
61461,-1.2132617235183716,,
61462,,-2.808398485183716,1.8183962106704712
61561,-2.2260091304779053,-1.192312479019165,-0.8080430626869202
61632,-4.668094635009766,-16.115371704101562,-11.558009147644045
61699,-13.244125366210938,-20.7098445892334,-10.949881553649902
61799,11.904569625854492,-5.525817394256592,6.508637428283691
61816,-5.891531944274902,-7.117961883544922,
61817,,,1.0019733905792236
61836,-3.095104217529297,-4.987122058868408,-0.5327098965644836
61856,-1.7399860620498655,-5.789179801940918,-1.8160020112991333
61876,-0.760757565498352,-6.718130111694336,-2.2469582557678223
61896,-0.71766197681427,-8.468291282653809,-2.28287124633789
61916,-1.4526818990707395,-10.02452278137207,-1.9357120990753172
61935,-1.821388959884644,-10.046070098876951,-1.6268600225448608
61955,-2.716820478439331,-8.736441612243652,-1.7178397178649902
61975,-3.492541790008545,-8.056488990783691,-2.6898856163024902
61996,-3.308188199996948,-8.583212852478027,-3.3195607662200928
62016,-2.2882583141326904,-9.682151794433594,-1.9931728839874268
62034,-1.2132617235183716,-10.012551307678224,-0.1879448294639587
62054,-1.1438298225402832,-9.627084732055664,1.0043675899505615
62074,-2.0632033348083496,-9.169792175292969,1.437718152999878
62094,-2.762310266494751,-8.98543930053711,1.1767501831054688
62114,-2.965817451477051,-8.820239067077637,0.7170634269714355
62134,-2.97778844833374,-8.643068313598633,0.6476315855979919
62153,-2.6186580657958984,-8.769960403442383,0.8439561128616333
62173,-2.0703859329223637,-9.370905876159668,
62174,,,1.0881646871566772
62193,-1.790264368057251,-10.527304649353027,1.3491326570510864
62213,-2.008136749267578,-11.386823654174805,1.0881646871566772
62233,-2.633023262023926,-11.736376762390137,-0.2094926536083221
62252,-2.937086820602417,,
62253,,-11.801020622253418,-1.1121066808700562
62272,-2.999336242675781,-11.650185585021973,-0.889445960521698
62292,-2.889202833175659,-12.030863761901855,-0.8200140595436096
62312,-1.3976151943206787,-14.748282432556152,-0.4728548228740692
62332,3.400364875793457,-15.263035774230955,1.7920600175857544
62352,5.0691237449646,-13.608642578125,4.2509050369262695
62371,-4.6920366287231445,-10.146626472473145,1.5047557353973389
62391,-10.37108325958252,-10.251971244812012,-1.8758569955825808
62411,-5.55634355545044,-10.917559623718262,-0.5638344883918762
62431,-2.2260091304779053,-12.801796913146973,1.4736311435699463
62451,-0.5380968451499939,-13.345280647277832,5.098452568054199
62471,-0.46627077460289,-15.03319263458252,6.712144374847412
62490,-1.5173252820968628,-14.415488243103027,
62491,,,4.523844242095947
62510,-2.846107244491577,-13.069947242736816,1.037886381149292
62530,-3.897161722183228,-13.012486457824709,-0.5877765417098999
62550,-2.5923218727111816,-11.365275382995604,0.3914519846439361
62570,-1.4024035930633545,-10.295066833496094,1.04028058052063
62590,-0.7894880175590515,-9.813833236694336,1.2102689743041992
62610,-0.262763649225235,-9.780313491821287,1.3419500589370728
62630,-0.4710591733455658,-10.781089782714844,0.8224082589149475
62649,-1.189319729804993,-11.645397186279297,0.8702923059463501
62669,-1.6202759742736816,-10.596736907958984,1.0857704877853394
62689,-2.1972784996032715,-8.415618896484375,0.484825849533081
62708,-3.128623008728028,-6.313509941101074,
62709,,,-0.0059855040162801
62729,-3.3057940006256104,-5.044582843780518,-0.0131681095808744
62748,-2.8652608394622803,-4.819528102874756,-0.3794809579849243
62768,-2.1134815216064453,-5.485116004943848,-0.1951274424791336
62788,-1.5652093887329102,-5.623979568481445,-0.5207388401031494
62808,-1.713649868965149,-4.38617753982544,-1.0881646871566772
62828,-2.1039047241210938,-2.834734916687012,-1.5406688451766968
62847,-2.228403329849243,,
62848,,-2.9759926795959477,-2.5103204250335693
62867,-1.862090349197388,-4.170699596405029,-4.808753967285156
62887,-1.3329718112945557,-4.467580318450928,-7.011419773101807
62907,-1.3090298175811768,-4.520252704620361,-8.641871452331543
62927,-2.7335798740386963,-4.745307922363281,-10.506954193115234
62947,-3.154959201812744,-5.303156852722168,-10.722432136535645
62966,-1.8022353649139404,,
62967,,-4.994304656982422,-5.632359504699707
62986,-1.7735048532485962,-2.0829553604125977,-0.0969651713967323
63006,-6.415862083435059,-6.560112476348877,-12.36724853515625
63026,-10.318410873413086,-37.91218566894531,-6.798335552215576
63046,-5.93941593170166,-28.756755828857425,9.252392768859863
63065,-4.6273932456970215,,
63066,,-2.3032219409942627,-3.4847605228424072
63085,-3.277063608169556,2.3343467712402344,1.1815385818481443
63105,-2.8604724407196045,-3.4787750244140625,6.060921669006348
63125,-3.878008127212525,-10.991780281066896,0.8607155084609985
63145,-2.079962730407715,-15.46175479888916,0.3148375153541565
63165,0.2639607489109039,-15.595829963684082,-0.8870517015457153
63184,1.1857284307479858,,
63185,,-11.59990692138672,-1.902193307876587
63204,1.5544354915618896,-7.714118003845215,-3.204638957977295
63224,0.8313865661621094,-6.564900875091553,-3.2333693504333496
63244,-0.6434416770935059,-6.658275127410889,-3.3219549655914307
63264,-2.465429306030273,-7.352593421936035,-3.09689998626709
63284,-4.194042682647705,-8.17380428314209,-2.4217350482940674
63303,-5.106233596801758,,
63304,,-9.332598686218262,-1.720233917236328
63323,-4.045602321624756,-10.465055465698242,
63324,,,-1.3275848627090454
63343,-1.811812162399292,-10.491392135620115,-1.1815385818481443
63363,0.1825578808784485,-9.603142738342283,-0.8391677141189575
63383,0.5632359385490417,-9.318233489990234,-0.2980781197547912
63403,-0.0855927094817161,-9.481039047241213,0.0538695380091667
63423,-1.5292962789535522,-9.476250648498535,-0.2908954918384552
63442,-3.133411407470703,-9.208099365234377,-1.0283095836639404
63462,-4.196436882019043,-8.5903959274292,-1.3970166444778442
63482,-4.275445461273193,-8.250418663024902,-1.3204022645950315
63502,-3.6840779781341553,-9.026140213012695,-0.3411737382411957
63522,-3.308188199996948,-9.854534149169922,0.1137245818972587
63542,-2.927510023117065,-9.21288776397705,0.2023100405931472
63561,-1.936310648918152,-8.04691219329834,0.5877765417098999
63581,-1.1558008193969729,-8.877699851989746,0.8655039072036743
63601,-1.3186066150665283,-11.228805541992188,0.5638344883918762
63621,-2.446275472640991,-12.279860496520996,-0.2789244949817657
63641,-2.6114754676818848,-12.140996932983398,-1.5382746458053589
63660,-2.747945070266724,-12.148179054260254,-1.0307037830352783
63680,-4.39036750793457,-14.314931869506836,3.132812976837158
63700,-2.68569564819336,-15.006855964660645,6.424840450286865
63720,-4.150947093963623,-14.60463047027588,2.962824583053589
63740,-8.48205852508545,-17.391481399536133,-1.648407816886902
63759,-4.6513352394104,-13.567940711975098,-4.0569748878479
63779,2.1051018238067627,-10.711658477783203,-4.088099479675293
63799,4.604648590087891,-11.312602996826172,-2.175132274627685
63819,2.2152352333068848,-13.172897338867188,0.0969651713967323
63839,-1.0983400344848633,-13.555970191955566,1.1288660764694214
63859,-2.293046712875366,-12.385205268859863,-0.2094926536083221
63878,-3.0615854263305664,,
63879,,-11.547234535217283,-0.9588778018951416
63899,-4.459799289703369,-11.32457447052002,1.9381062984466555
63918,-3.794211149215698,-11.951854705810549,3.618835926055908
63938,-1.2994530200958252,-13.266271591186523,0.1592144072055816
63958,-0.9163807034492492,-14.417882919311523,-1.9357120990753172
63978,-1.9794062376022337,-13.04361057281494,-2.5007436275482178
63997,-2.4893712997436523,,
63998,,-10.189722061157228,-0.6212953329086304
64017,-2.915539026260376,-8.858546257019043,0.0706289485096931
64037,-2.958634853363037,-8.293514251708984,-0.7769184708595276
64057,-2.788646459579468,-8.14028549194336,-0.7122750282287598
64076,-2.6210522651672363,,
64077,,-7.220912456512451,-0.7960720658302307
64096,-2.604292869567871,,
64097,,-4.9799394607543945,-0.5710170865058899
64116,-2.702455282211304,-2.7126305103302,-0.7769184708595276
64136,-2.079962730407715,-2.3750481605529785,
64137,,,-0.7697358727455139
64156,-2.008136749267578,-2.918531894683838,-0.767341673374176
64176,-1.6011223793029783,-3.0861260890960693,-1.902193307876587
64196,-1.0983400344848633,-2.319981336593628,-3.5422213077545166
64215,-0.4590881764888763,-1.800439715385437,-4.449624061584473
64235,0.6613982319831848,-2.2816741466522217,-5.893327713012695
64255,1.0013748407363892,-2.7317841053009038,-8.08162784576416
64275,0.8194155097007751,-2.585737943649292,-9.55166721343994
64295,0.1538274586200714,-2.6144683361053467,-10.492588996887209
64315,-0.8445546627044678,-3.4189200401306152,-11.069591522216797
64334,-3.7415387630462646,,
64335,,-5.604825973510742,-14.692018508911133
64354,-10.517129898071287,,
64355,,-15.773000717163086,-13.23873805999756
64374,-8.64246940612793,-16.019603729248047,
64375,,,-2.1104888916015625
64394,-3.602674961090088,-8.200140953063965,-2.934094190597534
64414,-2.1757307052612305,-4.7405195236206055,0.9253589510917664
64434,-4.984129428863525,-9.981427192687988,-3.934870481491089
64453,-6.748656272888184,,
64454,,-12.67250919342041,-3.848679304122925
64473,-5.415085792541504,-11.638214111328123,-4.677073001861572
64493,-2.228403329849243,-8.480262756347656,-3.159149169921875
64513,-1.2850877046585083,-7.201758861541748,-3.269282341003418
64533,-0.70090252161026,-7.194576263427734,-3.049015760421753
64553,-0.6147112846374512,-7.527369976043701,-2.7305870056152344
64572,-0.8301894664764404,,
64573,,-7.814674377441406,-2.73537540435791
64592,-1.184531331062317,-8.10437297821045,-2.055422067642212
64612,-1.4143747091293335,-8.293514251708984,-1.578976035118103
64632,-1.4335283041000366,-8.537723541259766,-1.1001356840133667
64652,-1.3162124156951904,-8.576030731201172,-0.4441244006156921
64672,-1.1534066200256348,-8.178592681884766,-0.2980781197547912
64691,-1.0241197347640991,,
64692,,-8.259995460510254,-0.2382230758666992
64711,-0.9475052952766418,-9.030928611755373,
64712,,,0.1711854189634323
64731,-0.6889315247535706,-9.8784761428833,0.1879448294639587
64751,-0.6123170852661133,-10.560823440551758,0.3363853394985199
64771,-0.1741781681776046,-10.752359390258787,0.152031809091568
64791,-0.1646013706922531,-10.771512985229492,-0.4034229815006256
64810,-0.5213374495506287,-10.079588890075684,-0.6117185354232788
64830,-0.899621307849884,-10.165780067443848,-0.1424549967050552
64850,-1.392826795578003,-9.986215591430664,-0.0993593707680702
64870,-1.569997787475586,-9.646238327026367,-0.4656722247600555
64890,-1.8884265422821045,-9.136273384094238,-0.5590460896492004
64910,-1.8309657573699951,-8.571242332458496,-0.8367735147476196
64929,-1.450287699699402,-8.62630844116211,-0.8008604645729065
64949,-1.4646528959274292,-9.909601211547852,-0.4608838260173797
64969,-2.163759708404541,-11.39161205291748,-0.0754173547029495
64989,-3.090315818786621,-12.284648895263672,-0.3890577852725982
65009,-3.511695384979248,-13.005303382873535,-0.7122750282287598
65028,-3.775057554244995,,
65029,,-13.910311698913574,-1.478419542312622
65048,-2.920327425003052,-15.284584045410156,-1.7154455184936523
65068,-2.8413188457489014,-15.942989349365234,-1.9524714946746824
65088,-3.578732967376709,-14.5591402053833,-2.033874273300171
65108,-3.60028076171875,-13.457807540893556,-1.399410843849182
65127,-3.131017208099365,-12.665327072143556,
65128,,,-0.029927521944046
65147,-3.126228809356689,,
65148,,-13.081917762756348,1.5693992376327517
65167,-1.4550760984420776,-14.049175262451172,2.788047790527344
65187,-1.7399860620498655,-14.504074096679688,2.5462334156036377
65207,-1.174954533576965,-13.141773223876951,2.014720678329468
65227,-1.6466121673583984,-12.847286224365234,-0.6141127347946167
65248,-2.5492262840271,,
65249,,-12.160150527954102,-2.103306293487549
65348,-3.442263603210449,-10.280701637268066,-1.4089876413345337
65451,0.3381809890270233,-4.350264549255371,-1.0235211849212646
65498,-0.8780734539031982,-2.252943754196167,-2.388216257095337
65565,0.2352303117513656,-3.2154128551483154,-5.189432144165039
65645,-1.567603588104248,-3.56017804145813,
65646,,,-8.857349395751953
65698,-3.293823003768921,-7.108384609222412,-2.088941097259521
65765,-2.7263972759246826,-8.949525833129883,-1.279700756072998
65804,-1.4071919918060305,-9.888052940368652,-1.9764134883880613
65884,-0.9546879529953004,,
65885,-0.6075286865234375,-8.293514251708984,-1.6412252187728882
65982,-1.2228385210037231,-8.607154846191406,-0.992396593093872
66081,-1.6585832834243774,-9.387664794921877,-1.3539210557937622
66180,-3.3297359943389893,-8.437167167663574,-0.3220201432704925
66231,-3.202843427658081,-13.15613842010498,-0.6979097723960876
66299,-2.446275472640991,-14.788984298706056,-1.40180504322052
66378,-5.582679748535156,,
66379,,-12.011710166931152,-3.317166566848755
66424,-3.36325478553772,-13.716381072998049,
66425,,-12.617443084716797,3.022679567337036
66498,-7.548319339752197,-11.762712478637695,3.578134536743164
66596,-3.7894227504730233,,
66597,-3.449446201324463,-9.41400146484375,-3.0538041591644287
66631,-0.8182184100151062,-3.746925592422485,0.5015852451324463
66716,-1.7184382677078247,-1.5322890281677246,-0.1879448294639587
66814,3.0388405323028564,,
66815,,-3.4141316413879395,-9.836577415466309
66835,-14.81232738494873,,
66836,,-10.273519515991213,4.301183223724365
66936,-3.7630865573883057,-7.637503623962402,-2.539050817489624
67033,-1.2156559228897097,-9.066842079162598,-3.578134536743164
67112,-1.2443863153457642,-9.440337181091309,-1.6148890256881714
67144,-1.4071919918060305,-9.394847869873049,-1.4113819599151611
67231,-0.4183867573738098,-10.290278434753418,-1.895010590553284
67330,-2.949058055877685,-7.101202011108398,-1.3634978532791138
67331,,,-0.5781996846199036
67364,-2.1996726989746094,,
67365,,-9.66539192199707,-0.1496376097202301
67449,-2.515707492828369,,
67450,,-11.116278648376465,-0.1592144072055816
67548,-4.505289077758789,-16.03636360168457,-3.6308069229125977
67647,0.9415197968482972,,
67648,,-17.410634994506836,4.090493679046631
67684,-1.5340847969055176,-14.669273376464844,-1.2006921768188477
67766,-1.3569138050079346,-13.781024932861328,-0.7242460250854492
67827,-0.1167173311114311,-5.504269599914551,-0.1304839998483657
67898,-0.0712274983525276,-2.7078421115875244,
67899,,,-0.5566518902778625
67967,-0.6218938827514648,,
67968,,-1.6065093278884888,-1.868674397468567
68064,0.6685808300971985,-4.156333923339844,-6.707355976104736
68098,-8.97765827178955,-17.281347274780273,3.116053581237793
68183,-2.2260091304779053,1.6089035272598269,-0.4680664241313934
68282,-2.994547843933105,-6.208165168762207,-5.361814498901367
68381,-1.653794765472412,-7.826645374298096,-3.994725465774536
68404,0.019752163439989,-9.83538055419922,-2.0937294960021973
68499,-0.8780734539031982,-10.287884712219238,-1.9572598934173584
68579,-0.3298012912273407,,
68580,,-8.83939266204834,-1.3060370683670044
68631,-3.7247793674468994,,
68632,-4.0863037109375,-9.239224433898926,-0.7433996200561523
68720,-3.22678542137146,-9.069235801696776,-1.6531962156295776
68765,-1.4095861911773682,-9.44752025604248,-1.557428240776062
68818,-1.4766238927841189,,
68819,-1.8381483554840088,-8.250418663024902,-1.4544775485992432
68917,-2.2451627254486084,-7.105990409851074,-0.0466869324445724
68966,-3.140594005584717,-9.29189682006836,-2.103306293487549
69032,-3.6768951416015625,-10.366893768310549,-1.1049240827560425
69115,-0.226850613951683,-9.466673851013184,-0.4704606235027313
69165,-4.036025524139404,-13.7666597366333,-3.3506853580474854
69232,-3.533243179321289,-11.233593940734863,2.053027868270874
69315,-0.8924387097358704,-12.38759994506836,-0.5231330990791321
69365,-2.455852508544922,-6.94079065322876,-0.3746925592422485
69452,-2.283469915390014,-6.28477954864502,-0.8032546639442444
69498,-2.384026288986206,-3.514688014984131,0.5949591398239136
69565,-2.099116325378418,-3.464409828186035,0.1256955862045288
69650,-1.8142063617706297,-5.2480902671813965,-1.9045875072479248
69698,-3.028066635131836,-7.132327079772949,
69699,,,-4.796782970428467
69765,-3.937863349914551,-6.964732646942139,-7.351396083831787
69809,-3.9211037158966064,-28.42875099182129,
69810,,,-6.592434406280518
69898,-2.1039047241210938,-0.2154781520366668,2.273294448852539
69965,-0.8182184100151062,-17.350780487060547,-1.7322049140930176
70032,-3.109469413757324,-5.521028995513916,-0.0442927330732345
70099,-0.2579752206802368,-7.06528902053833,-0.5183446407318115
70185,-0.9498994946479796,-7.122750282287598,
70186,,,-2.0817582607269287
70231,1.2192472219467163,-8.561665534973145,-0.8774749040603638
70289,-0.2436100244522094,-9.888052940368652,-2.749740600585937
70303,-1.0504560470581057,,
70304,,-9.289502143859863,-6.398504257202148
70323,-2.4199392795562744,-8.801085472106934,-7.289146900177002
70342,-3.0544028282165527,-12.394782066345217,-3.317166566848755
70362,-3.581127166748047,-20.95644760131836,-3.949235677719116
70382,-2.384026288986206,-24.1838321685791,0.8343793153762817
70403,-6.844424247741699,-18.71547508239746,0.6141127347946167
70422,-7.04793119430542,-14.894329071044922,-0.6141127347946167
70442,-3.918709516525269,-13.867216110229492,-1.7058687210083008
70461,-2.896385431289673,,
70462,,-13.239935874938965,-0.8224082589149475
70481,-2.62823486328125,-12.531251907348633,-0.8535329103469849
70503,-3.863642930984497,-11.858481407165527,0.2406172752380371
70521,-5.0032830238342285,-10.053253173828123,0.5925649404525757
70541,-4.387973308563232,-6.914454460144043,0.3531447649002075
70561,-2.8437130451202397,-3.845088005065918,0.1472434103488922
70581,-1.9147628545761108,-1.9823989868164065,0.9612720012664796
70600,-1.6418237686157229,-0.8259995579719543,2.1296424865722656
70620,-2.630629062652588,-0.3926490843296051,2.6132712364196777
70640,-3.686472177505493,-0.8188169598579407,2.371456861495972
70660,-3.514089584350586,-1.403002142906189,1.8997989892959597
70679,-2.3696610927581787,-2.454056739807129,1.2892776727676392
70700,-0.8732850551605225,-3.995922565460205,0.4513070285320282
70719,-0.0424970798194408,-6.342240333557129,-0.3675099611282348
70739,0.3669114112854004,-10.11550235748291,-2.4887726306915283
70759,-0.5500678420066833,-13.996502876281738,-8.210914611816406
70778,-2.917933225631714,,
70779,,-13.565546989440918,-10.617087364196776
70800,-4.3424835205078125,-9.239224433898926,-7.372944355010986
70818,-5.19481897354126,-7.079654216766357,-5.6443305015563965
70838,-5.041590213775635,-7.115567684173584,-4.86142635345459
70858,-5.448604583740234,-8.190564155578613,-5.139153957366943
70878,-6.3081231117248535,-13.340492248535156,-6.80551815032959
70897,-8.072649955749512,-20.760122299194336,-2.9269115924835205
70917,-6.961740016937256,-24.885332107543945,1.2102689743041992
70937,-3.243544816970825,-16.445772171020508,-1.095347285270691
70957,2.674921751022339,-5.22175407409668,6.724115371704102
70977,5.186439514160156,-4.393360137939453,7.813477039337158
70999,1.3198037147521973,-14.06114673614502,3.8750154972076416
71016,-0.5093663930892944,,
71017,,-20.16396713256836,-5.464765548706055
71036,-2.5731682777404785,-15.85919189453125,-1.222239971160889
71056,-4.577115058898926,-8.954314231872559,0.8822633028030396
71076,-5.558737754821777,-6.296750545501709,0.7386112213134766
71096,-5.4653639793396,-5.935225963592529,0.4704606235027313
71115,-4.783016681671143,,
71116,,-6.813898086547852,-0.3555389642715454
71135,-3.648164749145508,,
71136,,-7.738059997558594,-1.035492181777954
71155,-2.338536500930786,,
71156,,-7.568071365356445,-1.0522516965866089
71175,-1.5771803855895996,-7.125144481658936,-0.910993754863739
71196,-0.7846996188163757,-7.137115478515625,-1.6101006269454956
71215,0.3860650360584259,-6.878541469573975,-2.383427858352661
71235,0.8696937561035156,-6.780379295349121,-1.9165585041046145
71254,-0.0640448927879333,-7.218518257141113,
71255,,,-2.232593059539795
71274,-1.5939397811889648,-7.613561630249023,-1.258152961730957
71295,-1.5436615943908691,-6.830657482147217,0.9612720012664796
71314,-0.3034650683403015,-6.354211330413818,-0.0849941596388816
71334,0.5033808946609497,-7.489062786102295,-2.223016262054444
71354,0.1466448605060577,-8.884882926940918,-0.6189011335372925
71373,-0.2340332120656967,-9.191340446472168,-0.8248024582862854
71394,0.2208651006221771,,
71395,,-8.520963668823242,-0.93254154920578
71413,-0.1646013706922531,-8.951920509338379,-1.1815385818481443
71433,-0.2172738015651703,-12.58152961730957,-1.698686122894287
71453,-1.1079168319702148,-21.286848068237305,-2.7305870056152344
71472,-3.310582399368286,,
71473,,-24.46874046325684,-2.7234044075012207
71494,-8.752602577209473,-16.780960083007812,-1.5286977291107178
71512,-11.809998512268066,-13.48414421081543,0.669179379940033
71532,-10.375871658325195,-13.637372970581056,0.4872200489044189
71552,-6.056731700897217,-13.73314094543457,-0.8990227580070496
71572,-1.174954533576965,-13.275848388671877,-0.6021417379379272
71593,0.9080010056495668,-11.78904914855957,-0.889445960521698
71611,-0.6506243348121643,-9.330204010009766,-0.6476315855979919
71631,-2.2451627254486084,-6.40927791595459,
71651,-3.116652011871338,-4.592078685760498,1.3682862520217896
71670,-3.5667619705200195,,
71671,,-3.821146011352539,1.6292542219161987
71691,-3.3033998012542725,-3.49314022064209,1.8375498056411743
71710,-2.692878246307373,,
71711,,-3.57214903831482,1.8303672075271609
71730,-2.020107746124268,-3.699041604995728,1.9788076877593996
71750,-1.775899052619934,-3.612850427627564,2.292448043823242
71770,-2.257133722305298,-3.335123062133789,2.211045265197754
71791,-2.5707740783691406,-2.813186883926392,1.3515268564224243
71809,-1.816600561141968,,
71810,,-2.834734916687012,0.6356605291366577
71829,-0.0329202748835086,,
71830,,-4.541800498962402,0.6021417379379272
71849,0.4315548539161682,-7.568071365356445,0.1735796183347702
71869,-0.3681085109710693,-12.126631736755373,-3.793612480163574
71890,-3.092710018157959,-15.7107515335083,-11.098321914672852
71909,-6.3751606941223145,-13.129801750183104,-10.820594787597656
71929,-6.605003833770752,-8.53293514251709,-6.915651798248291
71948,-5.319317817687988,-6.2392897605896,-5.175066947937012
71968,-5.37438440322876,-6.957550048828125,-4.638765811920166
71989,-9.154829025268556,-13.804966926574709,-9.135076522827148
72008,-14.975132942199709,-26.951528549194336,-5.625176906585693
72027,-7.737461566925049,-27.669788360595703,4.06894588470459
72047,3.139396905899048,-8.83939266204834,8.005013465881348
72067,8.691550254821777,-1.094150185585022,8.572439193725586
72088,8.330026626586914,-7.417236804962158,10.123882293701172
72107,3.290231704711914,-16.443376541137695,4.559757232666016
72127,-0.4279635548591614,-21.68907356262207,-6.250063419342041
72147,-4.320935726165772,-14.101847648620604,-0.5111620426177979
72166,-7.632116317749023,-7.620744228363037,2.697068214416504
72188,-9.00160026550293,-4.551377296447754,0.4058171808719635
72206,-7.816470146179199,-4.481945514678955,-0.9229647517204284
72226,-5.0918684005737305,-6.1315507888793945,-2.4384944438934326
72246,-2.407968282699585,-7.682993412017822,-1.6508020162582395
72266,-0.7344213724136353,-8.281543731689453,-0.4177882075309753
72286,0.2783259451389313,-8.250418663024902,-0.5351040959358215
72305,0.596754789352417,,
72306,,-7.754819393157959,-1.8375498056411743
72325,0.6685808300971985,-7.1921820640563965,-2.49834942817688
72345,0.5512649416923523,-6.358999729156494,-2.6874914169311523
72365,-0.3968389332294464,-6.210559368133545,-2.8095955848693848
72385,-1.9075802564620967,,
72386,,-6.612784862518311,0.2669534981250763
72404,-2.2475569248199463,-6.840234279632568,3.147178173065185
72424,-0.497395396232605,-6.370970726013184,
72425,,,1.382651448249817
72444,1.4778209924697876,-6.234501361846924,-1.1982979774475098
72464,1.3557167053222656,-7.536946773529053,0.9780313968658448
72487,0.25438392162323,-9.921571731567385,1.0761936902999878
72503,-0.1215057373046875,,
72504,,-9.739612579345703,-1.416170358657837
72523,-0.964264750480652,-6.71334171295166,-1.866280198097229
72543,-2.743156671524048,-5.377377033233643,-1.5191209316253662
72563,-4.732738018035889,-8.487444877624512,-2.3235726356506348
72584,-5.281010627746582,-15.720328330993652,-3.841496706008911
72603,-4.706401824951172,-22.318748474121094,-3.9205052852630615
72622,-4.581903457641602,,
72623,,-24.935609817504883,-2.086546897888184
72642,-6.372766494750977,-21.351490020751957,0.5039794445037842
72662,-7.493252754211426,-18.308460235595703,1.049857497215271
72683,-6.511630058288574,-18.030733108520508,-2.079364061355591
72702,-4.287416458129883,-16.852785110473633,-2.2613234519958496
72722,-3.861248731613159,-14.496891021728516,-2.074575662612915
72741,-4.488529682159424,-11.224017143249512,-0.690727174282074
72761,-4.75428581237793,-7.388506412506103,0.5207388401031494
72782,-3.861248731613159,-3.627215623855591,0.7817068696022034
72801,-3.1860837936401367,-2.23857855796814,0.5374982953071594
72821,-2.498948097229004,-2.655169725418091,0.1663970202207565
72840,-1.9267338514328003,,
72841,,-3.3925838470458984,0.3172317147254944
72860,-1.3353660106658936,-4.168305397033691,0.2238578647375106
72880,-1.3186066150665283,,
72881,,-4.446032524108887,-0.2214636504650116
72900,-1.53169047832489,-4.331110954284668,-0.9205705523490906
72920,-1.519719481468201,-4.213795185089111,-1.6723499298095703
72940,-2.015319347381592,-4.405331134796143,-2.8335378170013428
72959,-2.1302409172058105,,
72960,,-3.9408559799194336,-4.116829872131348
72980,-1.548449993133545,-3.519476413726806,
72981,,,-4.650736808776856
72999,-1.4550760984420776,-3.562572240829468,-4.557363033294678
73019,-2.4414870738983154,-4.137180328369141,-4.282029628753662
73039,-3.9665937423706055,-5.066130638122559,-4.578910827636719
73059,-5.58986234664917,-6.342240333557129,-5.318718910217285
73080,-6.810905456542969,-7.541735172271728,-6.10401725769043
73098,-6.525995254516602,,
73099,,-7.941566944122314,-6.867767810821533
73118,-6.104615688323975,-7.690176010131836,-7.614758491516113
73138,-6.533177852630615,-7.556100368499756,-7.231686115264893
73158,-5.994482517242432,-6.837840080261231,-5.900510311126709
73184,-4.543596267700195,-5.114014625549316,-4.301183223724365
73198,-4.586691856384277,-3.5027170181274414,-3.118447780609131
73217,-4.502894878387451,-1.7405846118927002,-0.6572083830833435
73237,-13.423690795898438,-10.441113471984863,-11.069591522216797
73257,-14.01984691619873,-33.61219787597656,-13.877989768981934
73278,-2.185307502746582,-40.27286529541016,2.582146644592285
73296,3.393182277679444,,
73297,,-8.769960403442383,10.499771118164062
73316,2.9933507442474365,0.0167594123631715,1.581370234489441
73336,5.416282653808594,-3.2800562381744385,6.290764808654785
73356,-3.621828556060791,-11.23598861694336,0.8152256608009338
73376,-8.158841133117676,-18.5861873626709,-3.135207176208496
73396,-7.249044418334961,-19.78328895568848,-4.696226596832275
73416,-1.9387048482894895,-13.400346755981444,-3.83191990852356
73435,0.9558850526809692,-7.95832633972168,-3.1663317680358887
73455,0.7691373229026794,-5.04218864440918,-3.530250310897827
73476,-0.5764040350914001,-5.286397457122803,-4.262876033782959
73495,-1.7830817699432373,-7.9631147384643555,-3.5494039058685303
73515,-2.305017709732056,-9.634267807006836,-2.670732021331787
73535,-3.111863613128662,-8.221688270568848,-2.955641984939575
73554,-4.378396511077881,-5.822698593139648,-2.4863784313201904
73575,-4.981735229492188,-4.754884719848633,-1.557428240776062
73594,-4.7135844230651855,-5.69580602645874,-2.740163803100586
73614,-3.5284547805786133,-7.848193168640137,-4.368220806121826
73634,-1.953070044517517,-9.296685218811035,-3.487154722213745
73653,-0.2699462473392486,,
73654,,-8.700529098510742,-0.5398924946784973
73674,1.0444705486297607,-7.292738437652588,0.9038111567497252
73693,1.288679122924805,-7.094019412994385,-0.0275333188474178
73713,0.436343252658844,-7.951143741607666,-0.8966285586357117
73734,-1.1127052307128906,-8.473079681396484,-1.8567034006118772
73785,-2.036867141723633,-8.039729118347168,-1.042674899101257
73815,-1.5556325912475586,-7.079654216766357,0.0825999602675437
73892,1.6621745824813845,,
73893,,-9.282320022583008,-1.2749123573303225
73959,-3.339312791824341,-13.369222640991213,-2.096123695373535
74026,-6.796540260314941,-13.522451400756836,1.6340426206588743
74092,0.2519897222518921,-20.441694259643555,0.4728548228740692
74190,-0.497395396232605,,
74191,,-14.255077362060549,3.286041736602783
74290,-2.9753942489624023,-5.430049419403076,2.6611552238464355
74359,-2.034472942352295,-1.5131354331970217,1.8064252138137815
74426,-2.3145945072174072,-1.1875240802764893,0.5710170865058899
74492,-3.06876802444458,-8.307879447937012,-4.91649341583252
74559,-7.153275966644287,-7.062894821166992,-9.139864921569824
74626,-4.270657062530518,-34.85478973388672,14.964958190917969
74692,8.940547943115234,-2.980781078338623,6.72650957107544
74759,-5.609015941619873,-12.236764907836914,-1.0019733905792236
74807,-2.824559450149536,-3.3231520652771,-1.96683669090271
74892,-1.73519766330719,-12.344504356384276,-2.270900249481201
74959,-2.896385431289673,-8.367734909057617,-1.3323732614517212
75026,-1.4071919918060305,-9.016563415527344,1.5957354307174685
75092,-2.364872694015503,-8.971074104309082,0.3722983598709106
75159,-1.7639280557632446,-9.919178009033203,2.3977930545806885
75226,-2.2403743267059326,,
75230,,-11.283872604370115,0.0634463429450988
75292,3.455431699752808,-16.541540145874023,1.823184609413147
75360,-11.118074417114258,-10.409989356994627,-2.553416013717652
75426,0.7332242727279663,-15.662867546081545,5.577292919158936
75519,-4.129399299621582,-14.03959846496582,0.0849941596388816
75558,-1.3449428081512451,-10.26394271850586,
75559,,,0.6404489278793335
75625,-3.8492777347564697,,
75626,,-8.259995460510254,1.3898340463638306
75692,-3.3464953899383545,-2.1811177730560303,0.2669534981250763
75759,-2.0871453285217285,-3.450044631958008,-1.7944542169570925
75840,1.0372878313064575,-3.533841609954834,-11.007342338562012
75935,-5.10383939743042,,
75936,-12.92569637298584,-2.097320795059204,-4.370615005493164
75958,2.172139406204224,-3.794809579849243,7.380126953125
76026,-0.7775170207023621,-12.176909446716309,-2.3762452602386475
76093,-0.3633201122283935,-9.8784761428833,
76094,,-6.967126846313477,-2.24935245513916
76159,-3.3297359943389893,-6.00226354598999,-2.869450807571411
76253,-0.4231751561164856,-11.094730377197266,-1.0546458959579468
76292,-3.957016944885254,-8.762778282165527,-0.7601590156555176
76391,-3.775057554244995,,
76392,,-9.727641105651855,-0.3603273630142212
76490,-0.9762357473373412,,
76491,-1.7998411655426023,-9.586383819580078,1.382651448249817
76590,-1.7088614702224731,-13.594277381896973,0.8559271097183228
76689,-4.395155906677246,-11.87763500213623,-5.270834922790527
76788,0.2304419130086898,-12.70363426208496,-1.698686122894287
76828,-0.0041898530907928,,
76830,,-10.663774490356444,-1.236605167388916
76864,-0.1789665818214416,-9.763554573059082,-0.7841010689735413
76892,-1.3832499980926514,-7.845798969268799,-0.4010287821292877
76986,-2.874837636947632,,
76987,,-4.855441093444824,-0.5997475385665894
77025,-1.5580267906188965,-0.6129156351089478,-2.986766576766968
77105,-0.619499683380127,-0.1268926858901977,-5.70897388458252
77184,-1.0360907316207886,,
77185,,-6.071695327758789,-14.43344497680664
77227,-0.5931634902954102,-7.524975776672363,-1.413776159286499
77293,-7.114968776702881,-12.892776489257812,-4.217386245727539
77360,-0.3202244639396667,-9.327810287475586,-2.718616008758545
77425,-1.2300211191177368,,
77426,-0.7272387742996216,-7.982268333435059,-1.2868833541870115
77492,0.3118447661399841,-8.633491516113281,
77493,,,-0.7649474143981934
77559,-0.4542997777462005,-8.336610794067383,-1.9381062984466555
77627,-0.6386532783508301,-10.196905136108398,-2.3930046558380127
77692,-0.6338648796081543,-9.914389610290527,-1.2485761642456057
77759,-2.927510023117065,-12.99812126159668,-0.1280897855758667
77820,-4.00729513168335,,
77823,,,-0.6859387755393982
77892,0.6446388363838196,,
77893,,-15.119383811950684,1.502361536026001
77944,-4.395155906677246,,
77945,,-13.807361602783203,1.6148890256881714
78037,-1.548449993133545,-10.417171478271484,-1.7345991134643557
78092,-0.7152677774429321,-4.721365928649902,0.2286462634801864
78159,-1.450287699699402,-0.7829039692878723,-0.2358288615942001
78185,0.6518214344978333,,
78186,,-1.4844050407409668,-4.854243755340576
78275,1.6406266689300537,-1.7381904125213623,-6.925228595733643
78374,-7.390302181243896,-34.19398880004883,6.18302583694458
78474,-3.296217203140259,-11.815385818481444,-1.2485761642456057
78544,-0.5835866928100586,-7.941566944122314,-1.3658920526504517
78626,-2.97778844833374,-8.473079681396484,-1.5191209316253662
78692,0.4554968774318695,-9.253589630126951,-1.48081374168396
78759,-2.870049238204956,-8.513781547546387,-0.0155623108148574
78789,-0.7439981698989868,-10.156203269958496,-1.2844891548156738
78809,-1.2635399103164673,-11.81299114227295,-1.3251906633377075
78829,-2.271498918533325,-13.175292015075684,-1.0019733905792236
78849,-3.7846343517303462,-14.132972717285156,-1.698686122894287
78869,-5.37438440322876,-15.921441078186035,-2.254140853881836
78888,-3.028066635131836,-16.96770668029785,-1.3036428689956665
78908,-1.6561890840530396,-15.492878913879396,0.8990227580070496
78928,-5.14932918548584,-11.892000198364258,-0.0155623108148574
78948,-5.781398773193359,-10.54406452178955,-2.553416013717652
78968,-3.0352492332458496,-11.37006378173828,-0.7338228225708008
78987,1.1139023303985596,-13.646949768066406,1.3204022645950315
79007,1.2623428106307983,-16.235082626342773,0.8415619134902954
79028,-1.7304092645645142,-14.947001457214355,1.193509578704834
79047,-4.047996520996094,-12.648567199707031,1.069011092185974
79067,-4.287416458129883,-11.322179794311523,0.3363853394985199
79087,-4.366425514221191,-9.804255485534668,-2.1128830909729004
79106,-4.021660327911377,-8.219294548034668,-2.2469582557678223
79127,-2.9299042224884038,-6.370970726013184,-1.3850456476211548
79146,-2.5995044708251958,,
79147,,-5.743690013885498,-1.4449007511138916
79166,-1.4335283041000366,-6.368576526641846,-0.393846184015274
79186,0.1011550202965736,-7.000645637512207,-1.1073182821273804
79205,0.6637924313545227,,
79206,,-6.789956092834473,-1.236605167388916
79226,0.0724245980381965,-4.960785865783691,-0.568622887134552
79245,-1.2204443216323853,-2.0877439975738525,-0.9756371974945068
79265,-1.5987281799316406,-0.9050082564353944,-2.2876596450805664
79285,-0.2962824702262878,-1.9249382019042969,-3.647566318511963
79305,0.7068880796432495,-3.157952070236206,-5.318718910217285
79325,0.7978677153587341,-3.1866824626922607,-6.68101978302002
79344,0.1250970363616943,-2.604891538619995,-6.719326972961426
79364,-1.0791864395141602,-2.7054479122161865,-7.198167324066162
79384,-1.9889830350875852,-2.7078421115875244,-8.869319915771484
79404,-3.0615854263305664,-1.9776105880737305,-8.431180953979492
79424,-4.0527849197387695,-0.1580173075199127,-9.125499725341797
79443,-7.500435352325439,-14.190433502197266,
79444,,,-19.439720153808597
79463,-7.878719329833984,-24.34184837341309,9.113529205322266
79483,-5.190030574798584,-8.243236541748047,-4.511873245239258
79503,-0.6386532783508301,-4.616020679473877,3.0633809566497803
79524,-3.387196779251098,,
79525,,-11.355698585510254,-1.313219666481018
79542,-6.267421722412109,,
79543,,-14.714763641357422,-3.013102769851685
79563,-3.6768951416015625,-12.665327072143556,-1.9069817066192627
79582,-2.1110873222351074,-10.76193618774414,-1.7178397178649902
79602,-2.949058055877685,-9.29429054260254,-1.8614917993545528
79623,-3.5667619705200195,-8.010998725891113,-1.4975731372833252
79642,-2.949058055877685,-7.8314337730407715,-1.2892776727676392
79662,-1.6083049774169922,-8.56645393371582,-1.2677297592163086
79682,-0.4183867573738098,-8.951920509338379,-1.5191209316253662
79701,0.0125695588067173,-8.808267593383789,-1.6268600225448608
79721,-0.1502361595630645,-8.643068313598633,-1.5095441341400146
79741,-0.5764040350914001,-8.856152534484863,-1.3563152551651
79761,-0.9929951429367064,-9.445125579833984,-1.4185645580291748
79781,-1.0217255353927612,-10.333374977111816,-1.4879963397979736
79800,-1.2132617235183716,,
79801,,-10.503362655639648,-1.5861586332321167
79820,-1.2348095178604126,,
79821,,-9.141061782836914,-1.4520833492279053
79840,-1.7040730714797974,-7.220912456512451,-1.215057373046875
79860,-2.1733365058898926,-6.576871871948242,-0.9804255962371826
79880,-2.3265655040740967,-7.63989782333374,-0.851138710975647
79899,-1.8668787479400637,,
79900,,-8.983044624328613,-0.3603273630142212
79919,-1.32818341255188,,
79920,,-10.24239444732666,0.1496376097202301
79939,-1.4957774877548218,-11.051634788513184,0.0610521435737609
79959,-2.803011655807495,-11.580753326416016,-0.4417302012443542
79979,-3.708019971847534,-12.787431716918944,-1.4281413555145264
79999,-3.4614171981811523,-13.46020221710205,-1.8782511949539185
80019,-2.518101692199707,-14.968548774719238,-2.433706045150757
80038,-1.426345705986023,-16.733076095581055,-1.4305355548858645
80058,-3.2842462062835693,-16.8839111328125,-0.0418985299766063
80078,-6.305728912353516,-15.217546463012695,-0.0395043268799781
80098,-7.457339763641357,-12.38999366760254,-1.1671733856201172
80118,-6.612186431884766,-11.044452667236328,-3.2142157554626465
80138,-2.961029052734375,-12.97657299041748,-1.459265947341919
80157,0.4938040971755981,-15.416264533996582,2.3570916652679443
80177,1.082777738571167,-15.325284957885742,4.8494553565979
80197,1.8656816482543943,-13.230358123779297,3.7385458946228023
80218,0.2400187253952026,-12.461819648742676,-0.8224082589149475
80236,-2.5061306953430176,,
80237,,-12.531251907348633,-3.391386747360229
80256,-3.444657802581787,-10.532093048095703,-1.693897724151611
80276,-2.8628666400909424,-7.864952564239502,-1.0115501880645752
80296,-2.561197280883789,-6.605602264404297,-1.4281413555145264
80316,-1.9458874464035036,-6.502651691436768,-1.4927847385406494
80336,-0.2603694200515747,-6.576871871948242,-1.035492181777954
80356,0.6757634282112122,-6.172252178192139,-0.7625532150268555
80375,0.1514332592487335,,
80376,,-5.530605792999268,-1.212663173675537
80395,-0.8900445103645325,-3.7158010005950928,-1.6196774244308472
80415,-1.4047977924346924,-2.595314741134644,-2.275688648223877
80435,-0.8708908557891846,-2.432508945465088,-2.740163803100586
80455,-0.0041898530907928,-3.014299869537353,-2.912546396255493
80474,-0.1526303589344024,-3.050212860107422,-3.388992547988892
80494,-0.9929951429367064,-2.3104045391082764,-3.791218280792236
80515,-2.0416555404663086,-1.7549498081207275,-4.260481834411621
80534,-2.431910276412964,-1.556231141090393,-5.570110321044922
80554,-1.936310648918152,-2.1308395862579346,-7.100005149841309
80573,-1.4957774877548218,,
80574,,-2.932897090911865,-7.813477039337158
80593,-1.5747861862182615,,
80594,,-3.246537446975708,-8.481459617614746
80614,-1.3353660106658936,-2.719813108444214,-7.973888874053955
80633,-2.0177135467529297,-6.780379295349121,-19.008764266967773
80653,-7.359177589416504,-25.548526763916016,-20.99595260620117
80673,-5.592256546020508,-14.889540672302246,10.377667427062988
80692,-7.917026519775391,3.026270866394043,-6.554127216339111
80713,-1.1007342338562012,,
80714,,-6.026205539703369,2.84790301322937
80732,-6.609792232513428,-12.90714168548584,0.0849941596388816
80752,-7.873930931091309,-15.435418128967283,-2.4839842319488525
80772,-3.087921619415283,-11.951854705810549,-1.7130513191223145
80792,-1.4622586965560913,-9.823410034179688,-1.6603789329528809
80812,-1.5245078802108765,-8.78432559967041,-2.031480073928833
80831,-1.081580638885498,-8.303091049194336,-2.254140853881836
80851,-0.3274070918560028,-8.197746276855469,-2.404975652694702
80871,-0.2196680009365081,-8.17380428314209,-2.919728994369507
80891,-0.4950011968612671,-8.075642585754395,-3.278859138488769
80911,-0.9522937536239624,-7.922413349151611,-3.183091163635254
80930,-1.3880383968353271,,
80931,,-7.807491779327393,-3.025073766708374
80950,-1.953070044517517,-8.1139497756958,-2.869450807571411
80970,-2.305017709732056,-8.559270858764648,-2.785653591156006
80990,-2.455852508544922,-8.999804496765137,-2.495955228805542
81011,-2.5133132934570312,-9.232041358947754,-2.0626046657562256
81030,-2.5995044708251958,-9.421183586120604,-1.3108254671096802
81049,-2.807800054550171,,
81050,,-9.51695156097412,-0.8655039072036743
81069,-3.1214404106140137,-9.442731857299805,-0.7697358727455139
81089,-3.4590229988098145,-9.141061782836914,-0.970848798751831
81109,-3.3848025798797607,-8.892065048217773,-0.9373299479484558
81129,-3.087921619415283,-8.640673637390137,-0.9062053561210632
81149,-2.793434858322144,-8.647856712341309,-0.93254154920578
81168,-2.7527334690093994,,
81169,,-8.7484130859375,-0.951695203781128
81188,-2.982576847076416,-8.707711219787598,-0.9038111567497252
81209,-2.913144826889038,-8.822632789611816,-0.7433996200561523
81228,-2.6641478538513184,-9.095572471618652,-0.606930136680603
81248,-2.305017709732056,-9.363722801208496,-0.4680664241313934
81267,-1.9075802564620967,-9.41639518737793,-0.3052607178688049
81287,-1.840542554855347,-9.531316757202148,-0.1376665979623794
81308,-1.9794062376022337,-9.758766174316406,0.0442927330732345
81327,-2.235585927963257,-9.90241813659668,0.1568202078342437
81347,-2.6162638664245605,-9.914389610290527,0.2932897210121155
81366,-3.2196028232574463,,
81367,,-10.125079154968262,-0.1089361757040023
81386,-3.667318344116211,-10.970232009887695,
81387,,,-0.93254154920578
81407,-3.126228809356689,-12.698845863342283,-1.0283095836639404
81426,-1.7232266664505005,-14.939818382263184,-0.2406172752380371
81446,-0.6769605278968811,-15.251065254211426,0.8032546639442444
81466,-3.1070752143859863,-12.38759994506836,-0.1113303825259208
81485,-6.104615688323975,,
81486,,-9.15542697906494,-4.521450042724609
81507,-4.35684871673584,-9.421183586120604,-5.720944881439209
81525,1.2072762250900269,-10.903194427490234,-5.033809185028076
81545,4.966172695159912,-13.601459503173828,-2.146401882171631
81565,6.531980991363525,-15.8903169631958,2.2804770469665527
81585,5.279813289642334,-15.490485191345217,1.8471266031265257
81605,0.5943605899810791,,
81606,,-12.904747009277344,1.5693992376327517
81624,-1.1390414237976074,-11.872846603393556,3.851073503494263
81644,-2.2691047191619877,-11.233593940734863,2.40736985206604
81664,-3.667318344116211,-9.720458984375,-0.3124433159828186
81684,-3.885190725326538,-8.983044624328613,-1.8830395936965945
81704,-2.25473952293396,-9.07641887664795,-1.6531962156295776
81723,-1.392826795578003,,
81724,,-9.636661529541016,-0.2597708702087402
81743,-1.1222820281982422,-10.196905136108398,-0.8032546639442444
81763,-0.7535749673843384,-11.39161205291748,-3.388992547988892
81783,-1.304241418838501,-10.730812072753906,-3.755305290222168
81803,-2.53725528717041,,
81804,,-8.743624687194824,-2.270900249481201
81822,-3.05679702758789,,
81823,,-7.407660007476807,-1.6412252187728882
81842,-2.891597032546997,,
81843,,-6.825869083404541,-2.021903276443481
81862,-2.5109190940856934,-6.835445880889893,-2.313995838165283
81882,-2.6617536544799805,-6.3063273429870605,-2.1559786796569824
81902,-3.1956608295440674,,
81903,,-4.977545261383057,-1.9500772953033447
81922,-3.624222755432129,,
81923,,-3.852270603179932,-1.655590534210205
81941,-3.820547342300415,,
81942,,-3.4620156288146973,-1.373074650764465
81961,-3.842095136642456,-3.7493197917938232,-1.1671733856201172
81981,-3.8277299404144287,-4.127603530883789,-1.092953085899353
82002,-3.425503969192505,-3.969586372375488,-1.3036428689956665
82021,-2.42472767829895,-3.361459255218506,-1.4425065517425537
82041,-1.20368492603302,-2.829946517944336,-1.679532527923584
82060,0.0628477931022644,-3.0406360626220703,-1.8303672075271609
82080,1.0013748407363892,-4.745307922363281,-2.412158250808716
82100,1.877652645111084,,
82101,,-7.319074630737305,-3.970783472061157
82120,0.6733692288398743,-10.948684692382812,-5.553350925445557
82140,-0.7128735780715942,-13.374011039733888,-7.691372871398926
82160,-2.3768436908721924,-14.001291275024414,-7.554903507232666
82179,-4.2060136795043945,-12.255918502807615,-6.228515625
82201,-4.945822238922119,-9.78989028930664,-4.993107795715332
82220,-5.230731964111328,-8.300697326660156,-3.9013516902923584
82271,-5.86040735244751,-7.304709434509277,-4.40892219543457
82338,-6.284181118011475,,
82339,,-12.871228218078612,-7.667430877685547
82405,-4.407126903533936,-17.01559066772461,-1.1887211799621582
82471,0.7667431235313416,-13.836091995239258,1.5119383335113523
82538,-3.030460834503174,-7.137115478515625,1.2437877655029297
82605,-2.0464439392089844,-9.464279174804688,-1.6651673316955566
82671,-0.0041898530907928,-9.227252960205078,-3.0202853679656982
82738,-1.3114240169525146,-7.331045627593994,0.3794809579849243
82805,-2.475006103515625,-6.615179061889648,0.2669534981250763
82817,-1.8956091403961184,-8.712499618530273,1.777694821357727
82871,-0.961870551109314,-10.204087257385254,-0.7170634269714355
82938,0.8553285598754883,-8.53532886505127,0.3196259140968323
83004,-1.5173252820968628,-7.5968017578125,-1.9309237003326416
83072,-0.5859808921813965,-21.73216819763184,-1.9165585041046145
83138,-7.881113529205322,-16.39788818359375,-0.750582218170166
83204,-4.129399299621582,,
83205,-4.883573055267334,-13.524845123291016,0.0059855040162801
83271,-4.246715068817139,-4.752490520477295,2.021903276443481
83338,-1.8501193523406985,-1.903390407562256,2.476801633834839
83404,-0.7703344225883484,-2.7509377002716064,-0.4441244006156921
83489,-1.2372037172317505,-14.156914710998535,-9.745597839355469
83538,-3.40874457359314,-9.765948295593262,-7.700949668884277
83605,-8.61852741241455,-19.342756271362305,10.758345603942873
83671,3.958214044570923,-5.547365188598633,5.7305216789245605
83738,-2.750339269638061,-11.892000198364258,-0.8248024582862854
83804,-2.352901697158813,-6.861782073974609,-1.0211269855499268
83806,-1.5364789962768557,-8.152256965637207,-1.844732403755188
83871,-1.1318588256835938,-7.256825447082519,-2.0434510707855225
83938,0.5680243372917175,-4.963180065155029,-1.555034041404724
84004,-2.1996726989746094,-5.954379558563232,-0.6667851805686951
84071,2.667739152908325,-10.283096313476562,-0.0945709645748138
84137,-0.0185550637543201,,
84138,-5.846042156219482,-10.520122528076172,-6.649895191192627
84222,-7.859565734863281,,
84223,,-21.15995407104492,-0.0706289485096931
84271,-1.4526818990707395,-11.894393920898438,-0.8822633028030396
84338,-5.242702960968018,-5.418078422546387,1.157596468925476
84405,-0.3561375141143799,-3.050212860107422,0.6643909811973572
84471,-3.066373825073242,,
84472,,-1.2186486721038818,2.304419040679932
84538,0.74040687084198,-7.489062786102295,-0.6667851805686951
84605,-6.085462093353272,-10.33098030090332,-9.036913871765137
84672,-6.430227279663086,-17.20473289489746,-0.0323217213153839
84758,3.579930067062378,,
84759,,-15.433024406433104,1.0283095836639404
84805,-3.514089584350586,-6.406883716583252,-0.2477998733520507
84838,-3.3656489849090576,-8.722076416015625,-2.208651065826416
84871,-0.2460042238235473,-6.021417140960693,-1.358709454536438
84956,0.9080010056495668,-5.4659624099731445,-1.8351556062698364
85005,-1.2348095178604126,-4.786009311676025,0.0371101275086402
85074,-1.8501193523406985,-8.29590892791748,-0.1903390288352966
85137,3.199252128601074,-8.468291282653809,
85138,,,-1.7345991134643557
85204,-7.170035362243652,-25.07926368713379,-4.387374401092529
85301,-4.0743327140808105,-12.16254425048828,-1.6747441291809082
85398,-3.3512837886810303,-7.316680431365967,-0.788889467716217
85497,-1.816600561141968,,
85498,-2.3122003078460693,-3.3207578659057617,1.5933412313461304
85547,0.761954665184021,-6.89530086517334,-1.8064252138137815
85613,-2.6785130500793457,-15.3947172164917,-13.049596786499023
85695,-3.291428804397583,,
85696,-7.270592212677002,-5.628767967224121,-5.5126495361328125
85743,4.113837242126465,-9.646238327026367,7.255628108978271
85811,-0.1262941360473632,-14.860810279846191,1.136048674583435
85830,-4.2060136795043945,,
85831,,-10.6709566116333,-0.2382230758666992
85928,-3.360860586166382,-8.08282470703125,-0.7194576263427734
86027,0.3381809890270233,,
86028,,-4.795586109161377,-0.5422866940498352
86126,-2.343324899673462,-7.1490864753723145,-0.1879448294639587
86225,0.5009866952896118,,
86226,,-10.541669845581056,-1.0211269855499268
86272,0.9654618501663208,-17.513586044311523,-3.3650505542755127
86339,0.345363587141037,-19.98200798034668,3.3937809467315674
86404,-4.316147327423096,,
86405,0.10594342648983,-17.843984603881836,-2.2469582557678223
86473,2.32297420501709,-15.00925064086914,1.2437877655029297
86570,-2.230797529220581,,
86571,-1.790264368057251,-9.6989107131958,1.3204022645950315
86668,-1.2802993059158323,,
86669,-1.5652093887329102,-1.290474772453308,1.5693992376327517
86768,-0.3393780887126922,-1.256955862045288,-0.6332663297653198
86804,-3.6290111541748047,-10.158597946166992,
86805,,-13.455413818359377,-8.462306022644043
86822,-5.027225017547607,-13.572729110717772,-7.825448036193848
86871,-4.804564476013184,,
86872,,-10.261548042297363,-7.696161270141602
86969,-8.144475936889648,-8.401253700256348,-7.078457355499268
87004,4.990114688873291,,
87005,6.68520975112915,-19.800048828125,2.5965118408203125
87098,5.253477096557617,,
87099,,-5.748478412628174,6.051344871520996
87198,-3.700837373733521,-6.636727333068848,-1.116895079612732
87297,-4.059967517852783,-9.531316757202148,-0.5949591398239136
87329,-2.824559450149536,-8.801085472106934,1.279700756072998
87384,-3.5667619705200195,,
87385,,-7.704541206359863,2.553416013717652
87451,-1.668160080909729,-9.124302864074709,-0.3579331636428833
87517,-3.1214404106140137,-9.014169692993164,
87518,,,1.6531962156295776
87584,-2.0009541511535645,-9.92636013031006,-0.6045359373092651
87660,-1.5652093887329102,-9.909601211547852,-2.718616008758545
87726,4.441842555999756,-15.58625316619873,4.54299783706665
87792,-7.924209117889404,-18.53590965270996,3.1735143661499023
87813,-1.0767922401428225,,
87814,,-15.375563621520996,-0.3244143426418304
87911,2.095525026321411,-11.944672584533691,2.3594858646392822
88010,-2.5133132934570312,-11.149797439575195,1.1288660764694214
88057,-1.660977482795715,-6.6391215324401855,-1.049857497215271
88122,-3.4326868057250977,,
88123,-2.8772318363189697,-4.347870349884033,-0.0682347491383552
88189,-1.7830817699432373,-1.6089035272598269,-1.195903778076172
88254,-1.567603588104248,-2.6384103298187256,-3.475183725357056
88255,,,-5.5126495361328125
88321,-2.3122003078460693,-6.646304130554199,-11.189301490783691
88386,-8.628104209899902,-8.501810073852539,-4.837484359741211
88454,-3.8947675228118896,-23.611618041992188,1.9620482921600344
88552,0.4722562730312347,-11.774683952331545,2.230198860168457
88585,-2.542043685913086,-6.31829833984375,-1.2557587623596191
88624,-2.9059622287750244,-7.280767440795898,-1.1647791862487793
88625,,,-1.1887211799621582
88651,-3.688866376876831,-10.498574256896973,-0.9469067454338074
88751,-2.879626035690308,,
88752,-1.732803463935852,-10.740388870239258,-1.0187327861785889
88784,-0.8900445103645325,-9.184157371520996,0.7529764175415039
88804,-3.066373825073242,-8.841787338256836,0.2286462634801864
88902,-3.3656489849090576,-8.741230010986328,
88903,,-8.530540466308594,0.5303156971931458
88984,-1.3353660106658936,-9.713275909423828,1.2892776727676392
89081,-3.200449228286743,-11.025299072265623,-1.057040095329285
89180,0.4890156984329223,,
89181,,-15.852009773254396,2.9101521968841557
89279,2.7922377586364746,-15.334861755371094,4.049792289733887
89318,-4.39036750793457,-11.925518989562988,-0.934935748577118
89398,-2.996942043304444,-12.066776275634766,-1.195903778076172
89464,-3.930680751800537,-5.556941986083984,0.707486629486084
89529,-1.713649868965149,-4.079719543457031,-1.657984733581543
89616,0.5249287486076355,-0.9385270476341248,-2.61087703704834
89659,-2.7455508708953857,-1.908178806304932,-9.410409927368164
89725,-3.334524393081665,-1.620874524116516,-8.99621295928955
89814,-0.4926069974899292,-5.631162166595459,-4.107253074645996
89815,,,-3.429693937301636
89841,-5.513247966766357,-6.830657482147217,-4.887762546539307
89923,-4.270657062530518,-8.257601737976074,
89924,,,-4.531026840209961
90013,-3.27227520942688,-8.712499618530273,-4.083311080932617
90058,-0.4519055783748626,-6.615179061889648,-3.0394389629364014
90138,-0.9355342984199524,-7.331045627593994,-2.7952303886413574
90187,-1.5963339805603027,-7.673416614532471,-3.245340347290039
90254,-3.5643677711486816,-6.746860504150391,-2.254140853881836
90353,-1.6035165786743164,-8.884882926940918,-0.5781996846199036
90424,-1.2300211191177368,-11.717223167419434,1.013944387435913
90452,-0.8062474131584167,-18.66040802001953,3.314772367477417
90551,-10.878653526306152,-13.053187370300291,-3.932476282119751
90651,-6.475717067718506,-13.077129364013672,2.9436709880828857
90749,-3.576338768005371,-7.275979042053223,-2.141613483428955
90783,0.2256535142660141,,
90784,,-3.318363666534424,-0.1544260084629058
90832,0.4124012291431427,-3.071760892868042,-0.5805938839912415
90918,-0.3992331326007843,-1.4508862495422363,-2.053027868270874
90984,-0.5285200476646423,-2.80361008644104,-6.537367820739746
91084,-11.97519874572754,-10.251971244812012,-1.169567584991455
91182,-4.577115058898926,,
91183,,-13.785813331604004,-3.973177671432495
91212,-0.2244564145803451,-7.970297336578369,-1.9979612827301023
91301,-1.20368492603302,,
91302,-1.998559832572937,-8.238448143005371,-1.765723705291748
91394,-1.028908133506775,-7.752425193786621,-1.1312602758407593
91480,-1.1198878288269043,-9.100360870361328,-0.4656722247600555
91528,-1.5221136808395386,-11.010933876037598,-0.5590460896492004
91599,-1.4742296934127808,,
91609,,-11.650185585021973,
91610,,-12.84249782562256,-1.037886381149292
91625,-1.490989089012146,-17.367538452148438,-2.29484224319458
91724,0.3046621680259704,,
91823,-0.7056909799575806,-14.947001457214355,4.918887615203857
91874,-4.534019470214844,-8.178592681884766,-0.8056488633155823
91924,-3.05679702758789,-5.700594425201416,-0.8463503122329712
92023,-0.135870948433876,-4.395754337310791,-1.3299790620803833
92055,0.00299275200814,-2.5450363159179688,-4.746504783630371
92122,0.1490390598773956,-2.494758129119873,-5.459977149963379
92223,-3.2387564182281494,-4.266467571258545,-14.500482559204102
92253,-5.790975570678711,-9.090784072875977,-5.373785495758057
92335,-5.501276969909668,-10.797849655151367,-2.4791958332061768
92435,-1.2108675241470337,-10.493785858154297,-1.6364368200302124
92456,-0.9929951429367064,-8.003816604614258,-1.3443442583084106
92551,-1.2874820232391355,-8.092401504516602,-1.138442873954773
92650,-1.2156559228897097,-8.937555313110352,-0.4489128291606903
92749,-2.8556840419769287,,
92750,,-8.947132110595703,-0.8631097078323364
92815,-1.862090349197388,-13.21599292755127,-2.05781626701355
92854,1.288679122924805,-15.871163368225098,-0.0323217213153839
92947,-8.228272438049316,-13.105859756469728,2.5965118408203125
92997,0.3980360329151153,-16.53675079345703,3.2118215560913086
93086,-2.8604724407196045,-12.526463508605955,0.1041477769613266
93196,-0.9139865040779114,-7.2352776527404785,-2.232593059539795
93284,-0.518943190574646,-2.3774423599243164,-1.9907786846160889
93383,0.4818331003189087,-1.9345149993896484,-7.657854080200195
93493,-1.062427043914795,-12.847286224365234,6.329071998596191
93582,-1.469441294670105,-9.040505409240724,-2.184709072113037
93674,-0.6865373253822327,-7.187393665313721,-2.457648038864136
93723,-0.9044097065925598,-9.282320022583008,-2.890998601913452
93824,-1.692102074623108,-9.07641887664795,-1.985990285873413
93839,-3.1669301986694336,-9.983820915222168,-0.7146692276000977
93922,-3.339312791824341,-9.72285270690918,-0.7984662652015686
94022,-1.3066356182098389,-12.607866287231444,-0.1089361757040023
94123,-3.796605348587036,-12.610260009765623,0.6308721303939819
94153,5.16010332107544,-15.990873336791992,2.1942858695983887
94236,4.789001941680908,-15.401899337768556,3.67390251159668
94322,-2.252345323562622,-10.034099578857422,-0.9828197956085204
94387,0.7308300733566284,,
94388,,-7.101202011108398,0.0131681095808744
94454,-1.8668787479400637,-5.640739440917969,-0.6859387755393982
94521,0.4674678742885589,-2.1164743900299072,-1.236605167388916
94587,1.549647092819214,,
94588,1.6047136783599854,-4.091690540313721,-2.6132712364196777
94654,-2.3337481021881104,,
94655,,-9.009381294250488,-4.643554210662842
94747,-5.946598529815674,-20.65717315673828,0.9876081943511964
94830,1.6047136783599854,,
94831,,-8.56884765625,0.6045359373092651
94854,-3.4350810050964355,-7.412448406219482,-3.195062160491944
94950,-2.4438812732696533,-7.9846625328063965,-3.0154969692230225
94996,-2.8197710514068604,-8.422801971435547,0.2621650993824005
95081,-3.0424318313598637,-8.798690795898438,0.4225766062736511
95130,-1.3976151943206787,-8.520963668823242,-0.1280897855758667
95195,-1.2802993059158323,-7.8960771560668945,-1.8590975999832156
95293,-0.8301894664764404,-6.67982292175293,0.50876784324646
95392,0.7140706777572632,-8.121131896972656,-0.7745242714881897
95491,-8.51797103881836,-18.552669525146484,-3.908534288406372
95592,0.8146271109580994,-12.646173477172852,-2.9676129817962646
95659,-2.7742812633514404,-6.114790916442871,-0.4967968463897705
95723,-3.2172086238861084,-4.367023944854736,0.302866518497467
95806,-2.0823569297790527,-3.071760892868042,-0.1831564307212829
95824,-0.9163807034492492,-11.784260749816896,-7.906851291656494
95854,-2.5300726890563965,-14.97573184967041,-12.24275016784668
95921,-4.203619480133057,-12.270283699035645,-10.913968086242676
96003,-6.078279495239258,-7.079654216766357,-6.127959251403809
96055,0.9534908533096312,-19.89821052551269,-1.8327614068984983
96121,2.567182779312134,-7.4555439949035645,4.504690647125244
96188,-4.249109268188477,-9.071630477905272,-0.2262520641088485
96254,-2.793434858322144,-5.453991413116455,-2.4600422382354736
96321,0.0987608209252357,-8.69095230102539,0.5279214978218079
96388,-1.447893500328064,-7.371747016906738,-1.8351556062698364
96454,-1.1773487329483032,-6.562506675720215,1.07379949092865
96536,0.7212532758712769,-9.08838939666748,1.1288660764694214
96587,-2.68569564819336,-15.658079147338867,-2.1703438758850098
96654,-4.246715068817139,,
96655,,-22.58929252624512,-3.1423897743225098
96735,-6.035183906555176,-13.955801963806152,1.6268600225448608
96795,-1.1558008193969729,-6.09324312210083,1.7609353065490725
96814,-3.626616954803467,-2.106897592544556,2.227804660797119
96862,-3.126228809356689,-2.6455929279327397,1.6388310194015503
96927,-1.6250643730163574,-1.5705963373184204,1.708262920379639
96996,0.7356184720993042,-3.177105665206909,-0.7553706169128418
97061,-2.0632033348083496,-11.805809020996094,-8.56765079498291
97128,-3.277063608169556,-7.513004779815674,-3.465606927871704
97192,-5.826888561248779,-15.40429401397705,0.6596025824546814
97274,0.10594342648983,-19.65160751342773,-3.7385458946228023
97376,-3.0591912269592285,-13.295001983642578,-2.3116016387939453
97455,-2.78625226020813,-7.539340972900391,-0.8439561128616333
97522,-0.4614823758602142,-7.158663272857666,-0.3052607178688049
97589,-1.1869255304336548,-6.370970726013184,-0.8104372620582581
97645,1.449090600013733,-10.572794914245604,0.3196259140968323
97712,-0.0496796853840351,-5.808333396911621,-0.6404489278793335
97806,-7.016806602478027,-21.68428421020508,0.5542576909065247
97904,-3.425503969192505,-14.94460678100586,-0.992396593093872
98003,-3.1142578125,-3.378218650817871,1.7274165153503418
98102,-1.6442179679870603,,
98103,,-2.928108692169189,1.5095441341400146
98182,1.0181342363357544,-7.948749542236328,-3.5637693405151367
98250,-3.116652011871338,-12.083536148071287,-8.646659851074219
98315,-7.110180377960205,-15.998055458068848,-5.792770862579346
98385,1.7747019529342651,-12.464214324951172,3.444059133529663
98447,-0.5045779943466187,-14.460978507995604,1.701080322265625
98547,-3.897161722183228,-6.962338447570801,-0.3435679376125335
98648,-0.5428852438926697,-5.592854976654053,-1.1982979774475098
98711,-1.0241197347640991,,
98712,,-7.924807548522949,-0.5159504413604736
98779,0.3764882087707519,-9.30386734008789,1.1432312726974487
98844,0.5536591410636902,-10.15141487121582,-1.1456254720687866
98911,-3.358466386795044,,
98912,,-17.38190460205078,-2.759317398071289
98978,-7.938574314117432,,
98979,,-13.108254432678224,-1.1528080701828003
99047,-1.5269020795822144,-13.565546989440918,-2.3738510608673096
99112,-3.516483783721924,-5.489904403686523,1.6124948263168335
99178,-1.9506758451461792,-5.506663799285889,0.9062053561210632
99245,-1.1222820281982422,-2.33913516998291,-0.5207388401031494
99312,-1.9650410413742063,-3.44765043258667,-2.991554975509644
99378,-5.8436479568481445,-7.503427982330322,
99379,,-10.740388870239258,-5.17746114730835
99445,-7.493252754211426,,
99446,,-9.974244117736816,-7.370550155639648
99512,-5.920262336730957,-3.711012601852417,-5.586869716644287
99578,8.162431716918945,,
99579,8.557475090026855,-15.026009559631348,14.27542781829834
99645,-2.3145945072174072,-9.86650562286377,4.315548419952393
99720,-1.7280150651931765,-14.587870597839355,-1.0115501880645752
99807,-3.004124641418457,,
99808,,-6.751648902893066,-3.1304187774658203
99835,-3.6290111541748047,-7.479485988616943,-2.78086519241333
99920,-2.805405855178833,-7.931990146636963,-2.7688941955566406
99984,-1.953070044517517,-9.014169692993164,-2.0458452701568604
100049,0.1155202314257621,-6.619967937469482,
100050,,-6.528987884521484,-1.382651448249817
100117,-1.2084733247756958,-10.623072624206545,-0.7625532150268555
100186,-0.3393780887126922,-9.342175483703612,0.7577648162841797
100248,-2.144606113433838,-10.280701637268066,-0.3890577852725982
100315,0.6063315868377686,-4.955997467041016,-1.2054805755615234
100381,-2.0464439392089844,-17.283742904663086,1.236605167388916
100447,-5.549160957336426,-14.733917236328123,0.3746925592422485
100513,-2.2164323329925537,-18.49281311035156,-0.1161187812685966
100579,-0.1981201916933059,-13.194445610046388,2.273294448852539
100646,-0.9977835416793824,-10.81460952758789,1.4401123523712158
100711,-1.368884801864624,-4.170699596405029,1.9979612827301023
100778,-1.4838064908981323,,
100779,,-1.3287819623947144,2.2852654457092285
100827,-2.0871453285217285,-1.6759412288665771,-0.9804255962371826
100844,-3.751115560531616,-6.574477672576904,-3.441664934158325
100911,-6.435015678405762,,
100912,-8.42699146270752,-9.284713745117188,-7.533355712890625
100978,-7.045536994934082,-7.398083209991455,-8.847772598266602
101045,7.721899032592773,,
101046,,-21.562179565429688,6.98508358001709
101142,5.303755283355713,-10.268731117248535,8.62511157989502
101178,-3.380014181137085,-4.232948780059815,0.4369418025016784
101245,-3.3943793773651123,-4.797980308532715,-2.6013002395629883
101312,-0.739209771156311,-11.927912712097168,-3.1687259674072266
101378,-4.385579109191895,-7.874529361724853,-0.8056488633155823
101445,-2.1326351165771484,-7.824251174926758,1.3922282457351685
101512,-2.498948097229004,-8.851364135742188,
101522,,,0.3986345827579498
101589,0.0796072036027908,,
101590,-0.902015507221222,-8.858546257019043,2.6659436225891118
101654,-2.252345323562622,,
101655,-2.747945070266724,-12.212822914123535,1.0546458959579468
101724,6.972513675689697,-15.310919761657717,5.359420299530029
101787,-0.2962824702262878,-13.323732376098633,2.553416013717652
101821,-4.682459831237793,-16.733076095581055,6.8342485427856445
101919,-5.158905982971191,-14.080300331115724,0.5734112858772278
101983,-1.4790180921554563,-9.41400146484375,0.5710170865058899
102050,-2.5779566764831543,-8.001421928405762,-1.2102689743041992
102116,-3.162141799926758,-4.098873138427734,-1.48081374168396
102183,-1.105522632598877,-2.3750481605529785,-2.85987401008606
102248,0.1729810684919357,-1.874659895896912,-5.270834922790527
102313,-0.2747346460819244,,
102314,-1.368884801864624,-5.327098846435547,-12.403162002563477
102364,-15.379753112792969,,
102365,,-40.23695373535156,4.571728229522705
102447,2.358887195587158,,
102448,-2.695272445678711,-4.259284973144531,9.194931983947754
102517,-1.5580267906188965,-9.667786598205566,-2.0697872638702397
102614,-1.809417963027954,-6.691793918609619,-1.777694821357727
102645,0.352546215057373,-10.790667533874512,-0.8367735147476196
102695,-1.2587515115737915,-9.768342971801758,-0.3675099611282348
102751,-4.328118324279785,-8.999804496765137,-0.4991910457611084
102812,-3.573944568634033,-8.975862503051758,0.0778115540742874
102876,-0.6697779297828674,-10.036493301391602,1.0905588865280151
102943,-2.027290344238281,-11.063606262207031,0.0466869324445724
103011,-0.7200561761856079,-14.686033248901367,1.279700756072998
103073,-5.862801551818848,-14.597447395324709,-6.400898456573486
103158,2.9454667568206787,-11.693281173706056,
103259,-2.8389246463775635,,
103260,-3.028066635131836,-12.05001735687256,-3.132812976837158
103356,-1.2611457109451294,-9.081207275390623,-1.5717934370040894
103455,-2.1493945121765137,,
103456,,-3.35667085647583,-1.456871747970581
103554,1.1522095203399658,-1.2186486721038818,-7.952341079711914
103605,-10.42615032196045,,
103606,,-10.881647109985352,4.81593656539917
103672,1.0372878313064575,-10.99896240234375,1.258152961730957
103752,-6.78696346282959,-12.84010410308838,-2.618059635162353
103804,1.303044319152832,-8.149862289428711,-2.553416013717652
103834,1.566406488418579,-8.774748802185059,-2.041056871414185
103934,-0.1310825496912002,-8.279149055480957,-0.973242998123169
