relative_time,AccX,AccY,AccZ
30015,-1.4024035930633545,-11.939884185791016,-1.1456254720687866
30035,-1.323395013809204,-11.405977249145508,-1.96683669090271
30054,-0.9115923047065736,-10.070012092590332,-0.0682347491383552
30074,,-9.404424667358398,
30075,-0.3250128924846649,,0.3004723191261291
30094,-0.2316390126943588,-9.677363395690918,-0.5710170865058899
30114,-0.2100912034511566,-9.315838813781738,-1.3419500589370728
30134,-0.2867056429386139,-8.482656478881836,-1.543063044548035
30154,0.1394622474908828,-7.920019149780273,-1.4496891498565674
30175,0.5608417391777039,-7.728483200073242,-1.7417817115783691
30274,,-7.501033782958984,
30275,1.0133458375930786,,-2.220622062683105
30362,1.8680758476257324,-8.47547435760498,-6.204573631286621
30428,,-10.60152530670166,
30429,2.325368404388428,-13.979743957519531,-1.88782799243927
30495,0.1322796493768692,-9.095572471618652,3.003525972366333
30524,3.4314894676208496,-10.781089782714844,1.701080322265625
30612,,-11.159374237060549,
30613,2.990956544876098,,1.8926163911819456
30695,1.1330559253692627,-9.509769439697266,
30696,,,-0.4010287821292877
30791,0.9127894043922424,-8.832210540771484,0.7362170219421387
30828,1.468244194984436,-9.251194953918455,-0.2669534981250763
30895,2.162562608718872,-9.500192642211914,-0.7601590156555176
30962,2.054823637008667,-11.130643844604492,0.5351040959358215
31029,1.7962498664855957,-12.18409252166748,-0.5374982953071594
31095,0.6254851818084717,-8.578424453735352,1.1336544752120972
31126,2.1338322162628174,-13.455413818359377,2.3235726356506348
31208,1.9279309511184688,-13.445837020874023,1.0833762884140017
31228,1.7603367567062378,-9.694122314453123,-0.1711854189634323
31327,,-8.743624687194824,
31328,1.3126211166381836,,-0.3507505357265472
31427,-1.0097545385360718,-5.22175407409668,-1.6915035247802734
31517,,-11.264719009399414,
31518,2.9550435543060303,,-9.44871711730957
31561,,-11.91115379333496,
31562,1.753154158592224,,6.245275020599365
31628,,-6.63433313369751,
31629,-4.636970043182373,-7.6566572189331055,-0.1640028208494186
31695,4.43705415725708,-11.6430025100708,3.999513864517212
31762,0.1131260320544242,-9.107542991638184,-0.8391677141189575
31828,,-9.313444137573242,
31829,0.2495955228805542,-8.971074104309082,0.5063736438751221
31895,1.3198037147521973,-8.755595207214355,0.3746925592422485
31962,1.492186188697815,-9.33499240875244,-0.3579331636428833
32042,,-10.21845245361328,
32043,2.454655408859253,,0.6667851805686951
32095,2.0165164470672607,-13.663708686828612,-1.0019733905792236
32128,0.3573346138000488,-8.992621421813965,-0.0466869324445724
32161,0.5991489887237549,-10.30703830718994,
32162,-0.322618693113327,,2.086546897888184
32262,-1.1390414237976074,-14.192827224731444,0.6955155730247498
32294,1.3413515090942385,-10.101137161254885,0.9756371974945068
32362,1.3317747116088867,-9.739612579345703,0.3124433159828186
32429,-0.0161608606576919,-5.023035049438477,
32430,,,0.5231330990791321
32495,-0.8589198589324951,-4.474762916564941,-2.299630641937256
32550,,-13.42668342590332,
32551,1.856104850769043,,
32553,,,-7.930793285369873
32554,,,-10.064026832580566
32626,0.7715315222740173,-6.603208065032959,
32627,0.3333925902843475,,-4.485537052154541
32695,0.6637924313545227,-12.76109504699707,4.255693435668945
32778,1.0133458375930786,-9.002198219299316,2.366668462753296
32828,1.5544354915618896,-9.62947940826416,-0.9445125460624696
32896,0.2783259451389313,-8.554482460021973,-0.3890577852725982
32976,,-8.401253700256348,
32977,0.9103952050209044,,0.1783680319786071
33028,1.7196353673934937,-9.39245319366455,-0.992396593093872
33098,3.3500866889953613,-9.105149269104004,-0.0371101275086402
33126,3.4075474739074707,-11.702857971191406,0.0059855040162801
33215,2.380434989929199,-13.103466033935549,-0.0490811355412006
33295,,-13.366827964782717,
33296,0.0556651912629604,,2.167949676513672
33362,0.7667431235313416,-11.628637313842772,0.7122750282287598
33428,,-7.967903137207031,
33429,1.614290475845337,-7.194576263427734,0.6428431272506714
33495,-0.195725992321968,-4.2760443687438965,0.4800374507904053
33544,0.8744821548461914,-7.261613845825195,-3.872621297836304
33629,1.5065513849258425,-15.040374755859377,-6.901286602020264
33711,1.3628993034362793,-9.342175483703612,-2.7257986068725586
33761,0.6254851818084717,-7.592013359069824,1.648407816886902
33829,2.804208755493164,-9.423578262329102,3.535038709640503
33895,1.7387889623641968,-10.204087257385254,0.4537012279033661
33962,0.6613982319831848,-8.305485725402832,0.5398924946784973
34028,,-9.026140213012695,
34029,2.030881643295288,-9.05247688293457,1.2509703636169434
34095,2.4618380069732666,-10.01494598388672,-1.7154455184936523
34162,3.9151182174682617,-11.319786071777344,-0.568622887134552
34229,3.74752426147461,-12.880805015563965,0.3842693865299225
34295,-1.4766238927841189,-10.216058731079102,1.746570110321045
34362,-0.9235633015632628,-14.190433502197266,0.970848798751831
34428,,-10.99656867980957,
34429,0.3214215636253357,-9.892841339111328,1.1288660764694214
34495,0.8768763542175293,-8.039729118347168,0.1161187812685966
34536,-0.921169102191925,-4.034229755401611,0.0802057534456253
34624,-0.8565256595611572,-4.211400985717773,-2.2469582557678223
34695,-0.4997895956039428,-10.680533409118652,-8.057685852050781
34762,0.5225345492362976,-13.345280647277832,0.7745242714881897
34829,-0.3417722880840301,-7.469909191131592,0.8678981065750122
34895,3.3022027015686035,-11.475408554077148,
34896,1.058835744857788,,2.223016262054444
34981,0.314238965511322,-9.263166427612305,-0.8559271097183228
35029,,-8.056488990783691,
35030,2.279878616333008,-7.8314337730407715,0.8846575021743774
35096,1.468244194984436,-7.908048152923584,0.456095427274704
35162,1.6023194789886477,-8.99740982055664,-2.100912094116211
35216,4.125808238983154,-11.135432243347168,-0.6763619780540466
35217,4.113837242126465,-11.853693008422852,-0.3196259140968323
35237,3.338115692138672,-12.955025672912598,-0.3507505357265472
35257,1.911171555519104,-12.78503704071045,-0.2645592987537384
35276,-0.1478419601917266,-10.977415084838867,-0.6596025824546814
35296,-1.3162124156951904,-9.454702377319336,0.6308721303939819
35316,-2.2020668983459477,-10.44350814819336,1.7633295059204102
35336,-2.336142301559448,-12.878411293029783,1.7298107147216797
35356,-1.2372037172317505,-14.43224811553955,1.2270283699035645
35376,-0.5141547918319702,-15.51921558380127,0.8104372620582581
35395,,-14.678850173950195,
35396,-0.0017956512747332,,0.5542576909065247
35415,,-12.813767433166504,
35416,0.6518214344978333,,0.7697358727455139
35435,0.5129576921463013,-11.02051067352295,1.071405291557312
35455,0.4004302322864532,-10.129867553710938,1.5191209316253662
35475,0.1777694821357727,-8.645462036132812,0.7242460250854492
35495,0.2591723203659057,-7.144298076629639,0.2573766708374023
35514,,-6.2632317543029785,
35515,0.2974795699119568,,0.2358288615942001
35534,-0.0688332989811897,-5.331887245178223,0.3866635859012604
35554,-0.5237316489219666,-4.520252704620361,0.2406172752380371
35574,-0.6362590789794922,-3.88818359375,-0.729034423828125
35594,-0.4016273319721222,-4.436455726623535,-1.8590975999832156
35614,0.261566549539566,-5.882553577423096,-2.8407204151153564
35633,1.0851719379425049,-7.948749542236328,-3.6116533279418954
35653,1.367687702178955,-10.647014617919922,-4.404133796691895
35673,1.3221979141235352,-12.492944717407228,-6.918045997619629
35693,0.374094009399414,-11.334151268005373,-8.342596054077148
35713,-0.4734533727169037,-8.832210540771484,-5.720944881439209
35733,-1.7304092645645142,-8.154650688171387,-3.0657753944396973
35752,-2.075174331665039,-9.184157371520996,-2.096123695373535
35772,-0.8589198589324951,-11.46104335784912,-1.3754688501358032
35792,-0.0233434662222862,-14.34366226196289,-1.4065934419631958
35812,0.8768763542175293,-14.94460678100586,0.9876081943511964
35832,0.9510966539382936,-9.974244117736816,2.874239206314087
35852,0.579995334148407,-7.90086555480957,1.6172832250595093
35871,,-7.350199222564697,
35872,2.0644004344940186,,2.603694438934326
35891,3.29502010345459,-9.050082206726074,2.503137826919556
35911,4.032433986663818,-11.101913452148438,2.8215668201446533
35931,4.166509628295898,-11.50892734527588,2.4863784313201904
35951,3.048417329788208,-10.733205795288086,1.279700756072998
35971,1.6382324695587158,-9.928754806518556,0.2070984542369842
35990,0.8649053573608398,-9.330204010009766,-0.2741360962390899
36010,0.5321113467216492,-9.375694274902344,0.0035913025494664
36030,0.3381809890270233,-9.476250648498535,0.484825849533081
36050,0.7475894689559937,-9.002198219299316,0.992396593093872
36070,1.2647370100021362,-8.844181060791016,1.643619418144226
36090,1.8848352432250977,-8.576030731201172,1.5933412313461304
36109,2.32297420501709,-8.418013572692871,1.049857497215271
36129,2.6437971591949463,-8.592789649963379,0.5781996846199036
36149,1.8082208633422847,-8.688557624816895,0.089782565832138
36169,1.27191960811615,-8.56884765625,-0.029927521944046
36189,1.8656816482543943,-8.980650901794434,-0.3579331636428833
36209,2.943072557449341,-9.2033109664917,-1.2701239585876465
36228,3.8145618438720703,-8.71489429473877,-0.7697358727455139
36248,4.408323764801025,-9.591172218322754,0.5111620426177979
36268,3.74752426147461,-11.477803230285645,0.3794809579849243
36288,2.485780000686645,-11.475408554077148,-0.1616086214780807
36308,1.8297686576843264,-11.520898818969728,-0.4153940081596374
36327,,-12.121843338012695,
36328,2.3062148094177246,,-0.1951274424791336
36347,2.9478609561920166,-12.864046096801758,-0.3459621369838714
36367,1.5783774852752686,-12.33013916015625,-0.3818751573562622
36387,-0.0544680878520011,-10.71884059906006,-0.5374982953071594
36407,-0.6697779297828674,-9.976638793945312,0.7793126702308655
36427,-0.4542997777462005,-10.953473091125488,1.6268600225448608
36446,-0.6937199234962463,-12.94066047668457,1.6603789329528809
36466,-1.809417963027954,-13.939042091369627,0.9660604000091552
36486,-2.429516077041626,-14.889540672302246,1.2533645629882812
36506,-1.6944962739944458,-14.839262008666992,0.812831461429596
36526,-0.0999579206109047,-12.641385078430176,0.2956839203834533
36546,1.240795016288757,-10.702081680297852,0.4082113802433014
36565,,-9.478644371032717,
36566,1.7507599592208862,,1.291671872138977
36585,1.3365631103515625,-8.415618896484375,0.2549824714660644
36605,0.7236474752426147,-7.848193168640137,-0.1496376097202301
36625,0.4770447015762329,-6.8809356689453125,-0.1544260084629058
36645,0.0245405677706003,-5.612008571624756,0.0323217213153839
36665,-0.2795230448246002,-4.548983097076416,0.0107739074155688
36685,-0.3082534670829773,-3.8091750144958496,-0.2932897210121155
36704,-0.4542997777462005,-3.457227230072021,-0.930147349834442
36724,-0.578798234462738,-3.773261785507202,-1.7753005027770996
36744,-0.0065840547904372,-4.912901878356934,-3.137601375579834
36764,1.202487826347351,-7.347805023193359,-4.665102005004883
36784,2.3756465911865234,-11.51850414276123,-6.585251808166504
36804,1.2647370100021362,-14.810531616210938,-9.925163269042969
36823,-0.6147112846374512,-13.014880180358888,-11.196484565734863
36843,-0.801459014415741,-8.769960403442383,-6.53257942199707
36863,-1.835754156112671,-7.936778545379639,-2.958036184310913
36883,-2.609081268310547,-9.641449928283691,-0.3986345827579498
36902,,-12.777854919433594,
36903,-0.9570821523666382,,1.016338586807251
36922,1.2360066175460815,-14.358027458190918,4.045003890991211
36942,2.279878616333008,-13.273454666137695,2.713827610015869
36962,1.8010382652282717,-10.647014617919922,2.1799206733703613
36982,1.3341689109802246,-7.632715225219727,2.45285964012146
37002,1.9183541536331177,-7.738059997558594,2.3499090671539307
37022,3.862445831298828,-9.56483554840088,3.293224334716797
37041,4.310161590576172,-10.740388870239258,3.118447780609131
37062,2.7515363693237305,-10.417171478271484,1.2749123573303225
37081,1.240795016288757,-9.799467086791992,-0.1304839998483657
37101,0.6254851818084717,-9.126696586608888,-0.0802057534456253
37121,0.2376245260238647,-8.827422142028809,0.4129997789859772
37140,,-8.83699893951416,
37141,0.436343252658844,,1.162384867668152
37160,1.228824019432068,-9.165003776550291,1.3778630495071411
37180,2.318185806274414,-9.51695156097412,0.6619967818260193
37200,3.184886693954468,-9.17936897277832,0.2023100405931472
37220,3.5655648708343506,-9.081207275390623,0.180762231349945
37240,2.943072557449341,-9.057265281677246,0.1472434103488922
37259,1.9949685335159304,-9.63187313079834,-0.302866518497467
37279,1.6478092670440674,-10.122684478759766,-0.9085995554924012
37299,1.7172411680221558,-10.007762908935549,-2.270900249481201
37319,2.454655408859253,-9.121908187866213,-1.5598224401474
37339,2.8784289360046387,-9.90241813659668,0.8822633028030396
37359,2.7060465812683105,-10.869675636291504,0.7410054206848145
37378,,-10.201693534851074,
37379,2.5576059818267822,,0.0754173547029495
37398,2.5025393962860107,-10.24000072479248,0.1759738177061081
37418,3.0771477222442627,-10.735600471496582,0.120907187461853
37438,4.137779235839844,-11.75792407989502,-0.4369418025016784
37458,3.5057098865509038,-12.9741792678833,-1.0115501880645752
37478,1.1354501247406006,-12.16254425048828,-1.1192892789840698
37497,-0.5237316489219666,-10.046070098876951,-0.243011474609375
37517,-1.0456676483154297,-8.793902397155762,1.1982979774475098
37537,-0.964264750480652,-10.409989356994627,1.6603789329528809
37557,-1.0720038414001465,-12.835315704345703,1.459265947341919
37577,-1.0241197347640991,-14.51365089416504,0.7529764175415039
37597,-0.3345896899700165,-15.421052932739258,0.7146692276000977
37616,,-13.919888496398926,
37617,0.1466448605060577,,0.1735796183347702
37636,0.8696937561035156,-11.338939666748049,0.3172317147254944
37656,1.1402385234832764,-9.904812812805176,0.8918401598930359
37676,1.14742112159729,-9.119514465332031,0.8463503122329712
37696,1.0205284357070925,-8.56645393371582,-0.0155623108148574
37715,0.8170213103294373,-8.078036308288574,-0.1951274424791336
37735,0.436343252658844,-7.156269073486328,-0.3770867586135864
37755,-0.2292448133230209,-6.057330131530762,-0.2262520641088485
37775,-0.5740098357200623,-4.9799394607543945,-0.3387795388698578
37795,-0.4112041294574737,-4.273650169372559,-0.8367735147476196
37815,-0.4902127981185913,-4.120420932769775,-1.456871747970581
37835,-0.6218938827514648,-4.99669885635376,-2.4241292476654053
37854,0.2064998894929886,-6.270414352416992,-4.212597846984863
37874,1.6525976657867432,-8.7484130859375,-6.350619792938232
37894,2.5145103931427,-11.875240325927734,-7.669825077056885
37914,0.7284358739852905,-12.739546775817873,-8.541314125061035
37934,-1.0193313360214231,-11.374852180480955,-7.116764545440674
37954,-1.0648212432861328,-9.220070838928224,-4.037821292877197
37973,-1.6825252771377563,-8.099584579467773,-3.537432909011841
37993,-0.7966706156730652,-10.110713958740234,-2.1775264739990234
38013,-0.1454477459192276,-13.062764167785645,-0.4584896266460418
38033,,-13.105859756469728,
38035,1.5352818965911863,,2.826355218887329
38053,2.7012581825256348,-10.596736907958984,2.2469582557678223
38072,,-9.780313491821287,
38073,2.1912930011749268,,2.3953988552093506
38092,1.2814964056015017,-8.59997272491455,1.6531962156295776
38112,1.7459715604782104,-8.08043098449707,1.1312602758407593
38132,3.29502010345459,-9.275136947631836,
38134,,,2.088941097259521
38152,3.496133089065552,-10.500968933105469,2.6396074295043945
38172,2.186504602432251,-10.620678901672363,1.2270283699035645
38192,1.3988122940063477,-10.050858497619627,0.1113303825259208
38211,0.979827046394348,-9.217676162719728,-0.5111620426177979
38231,,-8.801085472106934,
38233,0.536899745464325,,-0.5614402890205383
38251,0.3932476341724396,-8.844181060791016,-0.029927521944046
38271,0.8122329115867615,-9.074024200439451,0.5542576909065247
38291,1.4419080018997192,-9.217676162719728,1.1336544752120972
38311,1.9901801347732544,-9.253589630126951,1.1073182821273804
38330,,-9.27034854888916,
38332,2.255936622619629,,0.7721300721168518
38350,,-9.29189682006836,
38351,2.093130826950073,,0.1759738177061081
38370,1.4179660081863403,-9.399636268615724,-0.3531447649002075
38390,1.0684125423431396,-9.86650562286377,-1.1288660764694214
38410,1.8201918601989744,-9.74440097808838,-1.5909470319747925
38431,2.9981391429901123,-9.215282440185549,-0.3962403833866119
38450,3.20404052734375,-10.20887565612793,0.6883329749107361
38469,2.6605565547943115,-10.78587818145752,0.1161187812685966
38489,2.5743653774261475,-10.457873344421388,-0.2477998733520507
38509,3.4985272884368896,-10.594342231750488,0.1280897855758667
38530,4.856039524078369,-11.46104335784912,0.1280897855758667
38549,4.688445568084717,-12.593501091003418,-1.1743559837341309
38568,2.1936872005462646,-13.10107135772705,-1.5191209316253662
38588,-0.6745663285255432,-11.535264015197754,-0.8343793153762817
38608,-1.1342530250549316,-9.983820915222168,-0.2669534981250763
38629,-0.5907692909240723,-8.899248123168945,0.5901707410812378
38648,-0.1023521199822425,-9.66299819946289,1.7298107147216797
38669,-0.0903811156749725,-12.05001735687256,1.844732403755188
38768,-0.5069721937179565,-13.979743957519531,0.8822633028030396
38821,1.5017629861831665,-8.9064302444458,0.6332663297653198
38888,1.0301052331924438,-8.429984092712402,-0.3435679376125335
38986,-0.7080851793289185,-5.142745018005371,
38987,,,-1.2294225692749023
39086,2.610278367996216,-11.367670059204102,-5.768828868865967
39185,1.4036006927490234,-7.802703380584717,
39186,,,-2.0649988651275635
39220,0.4339490532875061,-5.552153587341309,1.7609353065490725
39304,0.5105634927749634,-7.285555839538574,1.4616601467132568
39403,0.3166331648826599,-9.33499240875244,0.4345476031303406
39502,1.614290475845337,-9.612719535827637,0.8702923059463501
39533,,-9.612719535827637,
39534,1.4850035905838013,,-0.1927332431077957
39621,1.856104850769043,-9.749189376831056,-0.7242460250854492
39720,3.4865562915802,-10.342951774597168,0.2454056739807129
39753,,-10.26394271850586,
39754,1.1641805171966553,,-0.6763619780540466
39839,-0.4590881764888763,-9.938331604003906,0.4034229815006256
39938,,-14.362815856933594,
39939,0.6949170231819153,,-0.4297592043876648
40037,,-7.891288757324219,
40038,-0.2148796021938324,,-0.1616086214780807
40136,,-4.819528102874756,
40137,0.0532709881663322,-5.214571475982666,-1.6172832250595093
40236,1.8082208633422847,-13.148955345153809,-6.992266178131104
40287,,-10.828974723815918,
40288,1.0875661373138428,,-0.3699041604995727
40355,1.3078327178955078,-11.942277908325195,4.083311080932617
40454,1.547252893447876,-8.868123054504395,1.4209587574005127
40487,1.4443022012710571,-9.078812599182127,1.1432312726974487
40525,1.4514847993850708,-9.83538055419922,1.1312602758407593
40554,1.547252893447876,-10.139444351196287,1.3515268564224243
40621,,-8.966285705566406,
40622,1.5185223817825315,,0.8535329103469849
40688,1.4850035905838013,-8.980650901794434,0.9493009448051452
40771,,-9.390059471130373,
40772,2.057217836380005,-9.071630477905272,-0.4177882075309753
40870,2.054823637008667,-10.153809547424316,0.6236895322799683
40969,,-11.221623420715332,
40970,-0.6673837304115295,-9.165003776550291,-0.9756371974945068
41021,-0.0377086773514747,-14.31014347076416,0.8607155084609985
41088,1.3102269172668457,-13.804966926574709,-0.4225766062736511
41168,0.4291606545448303,-9.41639518737793,-0.0323217213153839
41222,0.618302583694458,-4.548983097076416,-1.1767501831054688
41223,,,-1.701080322265625
41306,,-4.541800498962402,
41307,0.8553285598754883,,-2.831143617630005
41406,0.7044938206672668,-10.54406452178955,-5.905298709869385
41505,-0.8421604633331299,-10.230423927307127,-2.8167781829833984
41555,-0.4231751561164856,-6.971915245056152,1.037886381149292
41621,2.483385801315308,-8.767566680908203,2.036268472671509
41703,2.4642322063446045,-10.33098030090332,1.2725181579589844
41740,0.536899745464325,-9.682151794433594,0.767341673374176
41742,1.3317747116088867,-9.617507934570312,0.6883329749107361
41761,1.9375077486038208,-9.641449928283691,0.6165069341659546
41781,2.1481974124908447,-9.48343276977539,0.6428431272506714
41801,1.810615062713623,-9.227252960205078,0.456095427274704
41821,1.1713632345199585,-9.0859956741333,0.2070984542369842
41841,,-9.167398452758787,
41861,0.3932476341724396,-9.244012832641602,0.1616086214780807
41880,,-9.495404243469238,
41881,0.5560533404350281,,0.4201824069023132
41900,0.9103952050209044,-9.5408935546875,0.5303156971931458
41920,1.4562731981277466,-9.569623947143556,0.9421183466911316
41940,1.8920178413391116,-9.828198432922363,1.294066071510315
41959,,-9.569623947143556,
41960,2.2607250213623047,,1.2677297592163086
41979,2.6007015705108643,-9.220070838928224,0.7864952683448792
41999,3.247136116027832,-9.825803756713867,0.4704606235027313
42019,,-10.771512985229492,
42020,4.453813552856445,,0.4153940081596374
42039,5.701192855834961,-11.841721534729004,0.6931213736534119
42059,5.662885665893555,-12.876016616821287,0.3603273630142212
42079,3.819350242614746,-12.96460247039795,-0.2262520641088485
42098,0.5033808946609497,-12.60547161102295,-0.7936778664588928
42118,-1.5963339805603027,-11.05642318725586,-0.180762231349945
42138,-2.058414936065674,-9.141061782836914,0.3722983598709106
42158,-1.141435623168945,-7.960720539093018,1.1815385818481443
42178,0.2591723203659057,-8.157045364379883,1.698686122894287
42199,1.6837223768234253,-10.158597946166992,1.6364368200302124
42217,2.2224178314208984,-11.903970718383787,0.9636662006378174
42237,2.390011787414551,-13.18247413635254,0.1879448294639587
42257,2.6581623554229736,-11.590330123901367,0.6165069341659546
42277,2.911947727203369,-11.037269592285156,1.1336544752120972
42297,2.93349552154541,-10.41956615447998,1.3443442583084106
42316,,-10.424354553222656,
42317,2.3038206100463867,,0.8559271097183228
42336,1.911171555519104,-10.80503273010254,
42337,,,0.3387795388698578
42356,1.7244237661361694,-10.54645824432373,-0.1113303825259208
42376,1.427542805671692,-9.65342140197754,-0.4776432514190674
42396,1.202487826347351,-8.485051155090332,-0.3746925592422485
42416,1.025316834449768,-7.580042362213135,-0.5039794445037842
42436,0.7954735159873962,-7.232883453369141,-0.8798691034317017
42455,0.4602852761745453,-6.732495307922363,
42456,,,-1.1408370733261108
42475,0.0939724147319793,-6.3518171310424805,-1.502361536026001
42495,0.1418564468622207,-6.433219909667969,-2.584540843963623
42515,0.7882909178733826,-6.72531270980835,-3.343502759933472
42535,2.188898801803589,-7.920019149780273,-4.145560264587402
42554,,-8.456320762634277,
42555,2.983773946762085,,-4.739322185516357
42574,2.5049335956573486,-9.124302864074709,-4.820724964141846
42594,2.2439656257629395,-9.519346237182615,-3.602076530456543
42614,1.5304933786392212,-9.390059471130373,-3.5182793140411377
42634,0.5680243372917175,-10.067618370056152,-3.463212728500366
42654,-0.3082534670829773,-10.453084945678713,-1.456871747970581
42673,,-9.639056205749512,
42674,-0.9163807034492492,,2.517503023147583
42693,-2.4917654991149902,-9.940725326538086,
42694,,,2.8431146144866943
42713,-2.0464439392089844,-12.25113010406494,0.8271966576576233
42733,0.4243722558021545,-14.168885231018066,-0.4776432514190674
42753,2.813785552978516,-12.66053867340088,-1.0905588865280151
42773,2.8353333473205566,-9.361329078674316,0.2597708702087402
42793,1.710058569908142,-7.445967197418213,-0.4273650050163269
42812,1.6980875730514526,-7.905653953552246,-1.013944387435913
42832,2.421136379241944,-9.44752025604248,-0.4944026470184326
42852,2.670133352279663,-10.83855152130127,-0.1927332431077957
42872,2.050035238265991,-11.008539199829102,-0.1448491960763931
42892,1.3796586990356443,-9.921571731567385,-0.4369418025016784
42911,,-9.131484985351562,
42912,1.5855600833892822,,-0.5734112858772278
42931,1.6071078777313232,-9.406818389892578,-0.4872200489044189
42951,1.391629695892334,-9.84256362915039,-0.3842693865299225
42971,1.2791022062301636,-9.648633003234863,-0.243011474609375
42991,1.3317747116088867,-9.344569206237791,0.1113303825259208
43010,,-9.217676162719728,
43011,1.4826093912124634,,0.393846184015274
43030,1.8082208633422847,-9.279925346374512,0.6404489278793335
43050,1.9255367517471316,-9.639056205749512,0.788889467716217
43070,1.6262614727020264,-9.801861763000488,0.6859387755393982
43090,1.5951368808746338,-9.548076629638672,0.4967968463897705
43110,1.6956933736801147,-9.583989143371582,0.4393360018730163
43130,1.8632874488830569,-9.670180320739746,0.6021417379379272
43149,,-9.880870819091797,
43150,1.9303251504898071,,0.6931213736534119
43169,1.9614497423172,-10.010157585144045,0.6260837316513062
43189,1.9015947580337524,-9.864110946655272,0.5327098965644836
43209,1.6573861837387085,-9.830592155456545,0.3675099611282348
43229,1.5209165811538696,-9.92636013031006,0.2837128937244415
43249,1.3581109046936035,-10.369287490844728,0.5638344883918762
43269,1.1426327228546145,-11.281478881835938,
43271,,,0.3890577852725982
43288,1.367687702178955,-11.70046329498291,-0.5327098965644836
43308,1.6645687818527222,-11.331756591796877,-1.7729063034057615
43328,2.3110032081604004,-10.955866813659668,-2.1057004928588867
43348,3.599083662033081,-10.819397926330566,-0.9469067454338074
43367,3.654150247573853,-10.81700325012207,-0.7625532150268555
43387,2.880823135375977,-10.007762908935549,
43388,,,-0.3627215623855591
43407,3.541622877120972,-10.168174743652344,1.5981296300888062
43427,4.848856925964356,-10.781089782714844,2.7928361892700195
43447,5.385158061981201,-11.413159370422363,2.962824583053589
43467,5.196016311645508,-12.356474876403809,1.866280198097229
43487,3.912724018096924,-12.832921028137209,0.6619967818260193
43506,2.071583032608032,-11.920730590820312,
43507,,,0.0323217213153839
43526,1.5424644947052002,-10.936713218688965,0.0873883590102195
43547,1.877652645111084,-10.824186325073242,-0.2023100405931472
43566,2.852092742919922,-10.778696060180664,-0.3675099611282348
43586,3.634996652603149,-10.182539939880373,-0.6931213736534119
43606,3.728370666503906,-9.160215377807615,-0.7146692276000977
43625,2.3924059867858887,-8.188169479370117,-0.4656722247600555
43645,0.7547720670700073,-7.620744228363037,
43646,,,-0.1304839998483657
43665,,-7.0317702293396,
43666,-0.5979518890380859,,-0.0179565120488405
43685,-1.4311341047286987,-6.016628742218018,-0.5662286877632141
43705,-1.2850877046585083,-5.683835029602051,-1.48081374168396
43725,-0.3705027103424072,-5.980715751647949,-1.8758569955825808
43744,0.3932476341724396,-6.33026933670044,-2.1296424865722656
43766,1.1976994276046753,-6.378153324127197,-2.7952303886413574
43785,2.4450783729553223,-7.137115478515625,-3.5039141178131104
43804,3.0364463329315186,-9.251194953918455,-4.025850296020508
43824,2.629431962966919,-11.240777015686035,-4.81593656539917
43844,1.79146146774292,-10.955866813659668,-4.322731018066406
43865,1.9015947580337524,-9.706093788146973,-3.02986216545105
43883,2.7036523818969727,-11.465831756591797,-0.6212953329086304
43903,2.2200236320495605,-13.421895027160645,1.1025298833847046
43923,1.5352818965911863,-10.90558910369873,-0.7721300721168518
43943,1.5376760959625244,-9.165003776550291,-2.2637176513671875
43963,1.106719732284546,-8.17380428314209,0.3100491166114807
43982,,-7.527369976043701,
43983,0.0700303986668586,,0.2286462634801864
44002,0.6637924313545227,-8.315062522888184,0.5662286877632141
44022,1.63344407081604,-10.5344877243042,0.9684545993804932
44042,1.9039889574050903,-11.63342571258545,1.157596468925476
44063,1.6813281774520874,-10.611102104187012,0.8319851160049438
44082,1.3437457084655762,-9.57201862335205,0.0323217213153839
44101,1.0516531467437744,-9.440337181091309,-0.1496376097202301
44121,0.8864531517028809,-9.81143856048584,-0.2382230758666992
44141,1.1091139316558838,-9.892841339111328,0.0251391176134347
44162,1.326986312866211,-9.682151794433594,0.5398924946784973
44181,1.5975310802459717,-9.68694019317627,1.162384867668152
44201,1.5352818965911863,-9.720458984375,1.3251906633377075
44220,1.075595140457153,-9.552865028381348,
44221,,,1.2318167686462402
44240,0.4435258507728576,-9.29189682006836,1.0067617893218994
44261,0.1490390598773956,-9.30386734008789,1.0235211849212646
44280,0.383670836687088,-9.368511199951172,0.9014169573783876
44300,0.8984242081642151,-9.27034854888916,0.7098808288574219
44320,1.427542805671692,-9.29429054260254,0.4513070285320282
44339,1.951872944831848,-9.3828763961792,0.3363853394985199
44360,2.1697452068328857,-9.66299819946289,0.6356605291366577
44379,2.387617588043213,-10.177751541137695,0.9397241473197936
44399,2.6437971591949463,-10.3549222946167,0.889445960521698
44419,3.005321741104126,-10.503362655639648,0.7960720658302307
44438,3.73555326461792,-11.456254959106444,1.157596468925476
44459,4.032433986663818,-12.617443084716797,1.1432312726974487
44478,2.239177227020264,-13.474567413330078,-1.1528080701828003
44498,-0.4830302000045776,-12.310985565185549,-2.4025814533233643
44518,-0.0975637212395668,-10.436325073242188,-0.5374982953071594
44537,0.5943605899810791,-9.47385597229004,
44538,,,0.4776432514190674
44559,0.4626794755458832,-8.738836288452148,1.238999366760254
44577,-0.0544680878520011,-9.277531623840332,
44578,,,1.720233917236328
44597,,-11.532869338989258,
44598,-0.4734533727169037,,1.07379949092865
44617,0.1083376258611679,-14.032416343688965,1.1839327812194824
44637,0.7523778676986694,-14.985308647155762,0.5183446407318115
44658,0.9870096445083618,-13.06515884399414,0.393846184015274
44676,,-11.233593940734863,
44677,0.5991489887237549,,0.6165069341659546
44696,,-10.472238540649414,
44697,0.283114343881607,,1.0785878896713257
44716,0.5249287486076355,-9.919178009033203,0.5805938839912415
44736,0.4124012291431427,-9.263166427612305,-0.0945709645748138
44757,0.7236474752426147,-8.667010307312012,-0.4656722247600555
44776,0.6422445774078369,-7.513004779815674,-0.7433996200561523
44795,,-6.289567947387695,
44796,0.1753752678632736,,-0.6524199843406677
44815,0.0939724147319793,-5.0876784324646,-0.8080430626869202
44835,0.1753752678632736,-4.062960147857666,-1.1192892789840698
44856,0.0389057770371437,-3.756502389907837,-1.6699557304382324
44875,0.0436941795051097,-4.127603530883789,-2.412158250808716
44895,0.7212532758712769,-4.587290287017822,-3.776853084564209
44914,,-6.222530364990234,
44915,2.1553800106048584,,-6.034585475921631
44934,3.661332845687866,-9.464279174804688,-7.150283336639404
44955,3.287837505340576,-13.206416130065918,-6.860584735870361
44974,0.8146271109580994,-14.470555305480955,-6.889315605163574
44994,-0.8062474131584167,-13.053187370300291,-5.160701751708984
45014,-1.450287699699402,-13.409923553466797,-5.021838188171387
45033,-0.4135983288288116,-13.838485717773438,-3.3530795574188232
45053,1.3437457084655762,-9.27034854888916,0.8152256608009338
45073,0.8361749649047852,-6.469132900238037,2.5989060401916504
45093,0.2088941037654876,-7.826645374298096,-0.2382230758666992
45113,2.607884168624878,-9.153033256530762,1.2318167686462402
45133,4.063559055328369,-9.040505409240724,2.7449522018432617
45153,,-9.107542991638184,
45154,2.7491421699523926,,
45172,1.4514847993850708,-9.581595420837402,0.9612720012664796
45193,,-9.962273597717283,
45194,1.714846968650818,,0.2310404628515243
45293,1.4850035905838013,-9.785101890563965,0.2142810523509979
45377,,-9.51455783843994,
45378,1.4610615968704224,,1.0881646871566772
45444,,-9.47385597229004,
45445,1.4634557962417605,,0.4752490520477295
45511,1.7507599592208862,-9.813833236694336,-0.333991140127182
45610,3.067570924758911,-9.667786598205566,0.3124433159828186
45709,,-12.52167510986328,
45710,3.316567897796631,,-1.035492181777954
45808,,-12.97657299041748,
45809,-1.6226701736450195,,1.804031014442444
45843,0.4818331003189087,-9.074024200439451,0.851138710975647
45910,0.2974795699119568,-9.04290008544922,0.5542576909065247
45977,-0.4375403523445129,-6.13633918762207,-0.2023100405931472
46047,-0.0329202748835086,-4.156333923339844,-1.2557587623596191
46146,3.912724018096924,-12.085929870605469,-7.384915351867676
46244,-3.1741127967834477,-8.87051773071289,-2.275688648223877
46324,3.01250433921814,-6.811503887176514,3.400963544845581
46377,1.025316834449768,-10.62546730041504,1.171961784362793
46444,0.4866214990615845,-8.705317497253418,0.9038111567497252
46542,,-10.06043529510498,
46543,2.236783027648926,,2.699462413787842
46641,,-9.390059471130373,
46642,2.2200236320495605,-9.349357604980469,0.180762231349945
46710,2.430713176727295,-9.397241592407228,0.2310404628515243
46711,,,0.4872200489044189
46777,2.9741971492767334,-10.362105369567873,0.1855506300926208
46859,,-11.927912712097168,
46860,0.4842272996902466,,-0.5279214978218079
46910,,-15.952566146850586,
46911,-0.2986766695976257,,1.2054805755615234
46977,0.2974795699119568,-12.868834495544434,-0.0514753349125385
47058,1.269525408744812,-9.006986618041992,0.5398924946784973
47110,-0.0712274983525276,-4.529829502105713,-1.0091559886932373
47177,0.4243722558021545,-4.458003520965576,-2.562992811203003
47276,2.5528175830841064,-7.539340972900391,-8.74721622467041
47310,-1.7232266664505005,-7.402871608734131,-4.423287868499756
47395,-0.9091981053352356,-10.879252433776855,-2.675520420074463
47494,2.9765913486480717,-7.345410823822021,0.4800374507904053
47545,1.204882025718689,-8.884882926940918,-0.9588778018951416
47577,-0.1023521199822425,-9.260771751403809,-0.6212953329086304
47644,0.5632359385490417,-9.33499240875244,0.1592144072055816
47711,1.8465280532836916,-8.887276649475098,-0.1352723985910415
47791,1.3628993034362793,-9.27034854888916,-1.942894697189331
47846,1.549647092819214,-10.237606048583984,-0.6739677786827087
47912,2.325368404388428,-11.343728065490724,-0.8367735147476196
48010,2.253542423248291,-10.465055465698242,2.144007682800293
48011,,,0.7697358727455139
48045,3.199252128601074,-10.04846477508545,-0.0538695380091667
48129,2.6198551654815674,-8.935160636901855,1.0283095836639404
48228,3.098695516586304,-8.437167167663574,-0.2286462634801864
48327,,-8.87291145324707,
48328,-0.1238999366760253,,-2.232593059539795
48377,,-5.781997203826904,
48378,7.628525257110596,,-2.852691411972046
48445,9.61331844329834,-6.083666324615479,-1.2198457717895508
48446,-4.167706489562988,,-1.1432312726974487
48537,-2.494159698486328,-19.92694091796875,-5.258863925933838
48577,3.04602313041687,-8.815450668334961,3.913322687149048
48644,3.4817678928375244,-12.543222427368164,0.2142810523509979
48744,-1.8716671466827397,-9.68694019317627,0.8439561128616333
48777,1.10193133354187,-9.481039047241213,0.8224082589149475
48844,0.5201402902603149,-9.816226959228516,0.930147349834442
48911,1.913565754890442,-9.488221168518066,1.3084312677383425
48977,3.93906044960022,-10.168174743652344,0.2023100405931472
49047,2.880823135375977,-11.678915977478027,-0.2286462634801864
49110,-0.3944447338581085,-9.457097053527832,
49111,-0.1574187576770782,,1.2030863761901855
49177,,-15.030797958374023,
49178,-0.0209492649883031,,-0.2765302956104278
49259,,-11.113883972167969,
49260,-0.6242880821228027,,0.2885012924671173
49310,-0.0520738884806633,-6.732495307922363,-0.8966285586357117
49378,0.5871779918670654,-5.063736438751221,-1.0642226934432983
49379,0.4674678742885589,-4.232948780059815,-2.9101521968841557
49477,,-4.692635536193848,
49478,0.8122329115867615,-9.531316757202148,-3.8558619022369385
49510,-0.5500678420066833,-12.229581832885742,-4.2509050369262695
49527,,-11.432312965393066,
49528,-2.834136247634888,,-3.3650505542755127
49616,-3.822941541671753,-14.00607967376709,-4.746504783630371
49712,,-9.550470352172852,
49713,2.540846586227417,-10.60391902923584,2.716221809387207
49795,2.473809003829956,-9.406818389892578,0.2358288615942001
49844,1.1162965297698977,-9.57441234588623,0.424970805644989
49911,1.2192472219467163,-9.466673851013184,0.3148375153541565
49993,1.8249802589416504,-9.308655738830566,0.3794809579849243
50043,,-9.282320022583008,
50044,3.2375593185424805,-10.15141487121582,0.9780313968658448
50111,3.311779499053955,-9.921571731567385,-0.3483563363552093
50177,,-12.236764907836914,
50178,4.006097793579102,,-0.8990227580070496
50234,-2.7240030765533447,-10.139444351196287,1.1336544752120972
50249,1.4155718088150024,-14.070723533630373,0.5135562419891357
50269,1.6214730739593506,-13.7666597366333,-0.5973533391952515
50290,1.4945803880691528,-12.27507209777832,-0.0682347491383552
50309,1.14742112159729,-10.714052200317385,0.2262520641088485
50328,,-9.888052940368652,
50329,0.8026561141014099,,0.4704606235027313
50349,0.3693056106567383,-9.634267807006836,0.7793126702308655
50368,0.3429693877696991,-8.820239067077637,0.1185129806399345
50388,0.0891840159893035,-7.802703380584717,-0.2956839203834533
50408,-0.3920505344867706,-6.914454460144043,-0.2980781197547912
50428,-0.7344213724136353,-5.961562156677246,-0.0945709645748138
50447,-0.6266822814941406,-5.161899089813232,-0.2094926536083221
50467,-0.444722980260849,-4.651933670043945,-0.6117185354232788
50487,-0.5213374495506287,-4.592078685760498,-1.1336544752120972
50507,-0.3824737071990967,-5.166687488555908,-2.2373814582824707
50527,0.4339490532875061,-6.004657745361328,-4.092887878417969
50547,1.9470845460891724,-8.453926086425781,-6.5277910232543945
50567,3.230376720428467,-12.78264331817627,-7.47110652923584
50587,1.669357180595398,-15.205574989318848,-7.779958248138428
50606,-0.6985083222389221,-13.383587837219238,-6.764816761016846
50627,-1.2395979166030884,-11.59751319885254,
50628,,,-4.806359767913818
50646,-1.1941081285476685,-11.259930610656738,-4.013879299163818
50666,-0.2890998423099518,-10.663774490356444,-1.7345991134643557
50686,,-7.7763671875,
50687,1.3988122940063477,,1.974019289016724
50705,,-7.522581577301025,
50706,1.83695125579834,,1.095347285270691
50726,2.761113166809082,-9.29189682006836,0.6739677786827087
50745,3.180098295211792,-9.81143856048584,1.9907786846160889
50765,2.483385801315308,-9.351752281188965,0.6572083830833435
50786,2.0236990451812744,-9.457097053527832,1.1863269805908203
50805,2.1098902225494385,-9.430760383605955,1.622071623802185
50824,2.081159830093384,-9.864110946655272,2.122459888458252
50844,,-10.338163375854492,
50845,1.3652935028076172,,1.7369933128356934
50864,0.9151836037635804,-10.309432983398438,1.1504138708114624
50884,0.8457517623901367,-9.83538055419922,0.767341673374176
50904,0.9702502489089966,-9.488221168518066,0.9373299479484558
50924,1.1210849285125732,-9.232041358947754,1.2892776727676392
50943,1.3628993034362793,-9.332598686218262,1.3898340463638306
50963,1.7507599592208862,-9.785101890563965,1.157596468925476
50984,2.3971943855285645,-10.29746150970459,0.7481880187988281
51003,2.7252001762390137,-9.797073364257812,0.3363853394985199
51023,1.8800468444824217,-8.951920509338379,0.2334346622228622
51043,0.6733692288398743,-9.181763648986816,-0.0466869324445724
51062,0.4171896576881408,-9.75397777557373,-0.50876784324646
51082,1.061229944229126,-10.17296314239502,-1.1192892789840698
51102,2.617460966110229,-9.387664794921877,-1.52630352973938
51122,4.350862979888916,-8.38449478149414,-0.1735796183347702
51142,5.030816555023193,-9.129091262817385,0.7362170219421387
51162,4.0994720458984375,-9.600749015808104,-0.0849941596388816
51182,2.674921751022339,-9.385271072387695,-0.484825849533081
51201,2.0452468395233154,-10.27591323852539,-0.6380547285079956
51221,3.069965124130249,-11.75553035736084,-0.5614402890205383
51241,4.144961833953857,-13.127408027648926,-0.3244143426418304
51260,2.5025393962860107,-12.406753540039062,
51261,,,-1.823184609413147
51281,,-10.620678901672363,
51282,-0.3561375141143799,,-1.236605167388916
51300,-1.5771803855895996,-9.701305389404297,0.3315969407558441
51320,-1.3640964031219482,-10.63504409790039,1.3539210557937622
51340,-0.3489548861980438,-12.085929870605469,1.7561469078063965
51360,0.7523778676986694,-13.397953033447266,1.1408370733261108
51380,1.1522095203399658,-14.923059463500977,0.0418985299766063
51399,,-13.381193161010742,
51400,1.1522095203399658,,-0.3100491166114807
51419,0.960673451423645,-11.432312965393066,
51420,,,0.0083797061815857
51439,0.900818407535553,-10.333374977111816,0.3722983598709106
51459,0.5297171473503113,-10.007762908935549,0.5734112858772278
51479,,-9.734824180603027,
51480,0.6637924313545227,,0.1544260084629058
51499,0.4698620736598968,-8.734047889709473,-0.3890577852725982
51518,,-8.092401504516602,
51519,0.1825578808784485,,-0.5303156971931458
51538,0.2160767018795013,-7.0988078117370605,-0.3435679376125335
51558,0.1298854351043701,-5.841852188110352,-0.2621650993824005
51579,-0.0424970798194408,-4.656722068786621,-0.7098808288574219
51598,-0.1143231317400932,-4.225766181945801,-1.1863269805908203
51618,0.1466448605060577,-4.546588897705078,-2.127248287200928
51638,1.1593921184539795,-5.128379821777344,-3.4344823360443115
51657,2.0165164470672607,-7.520187377929687,-4.906916618347168
51677,1.786673069000244,-11.882423400878906,-6.925228595733643
51697,0.0389057770371437,-14.664484977722168,-8.098387718200684
51717,-0.7368155717849731,-11.389217376708984,-7.102399349212647
51737,-0.3561375141143799,-8.796297073364258,-5.838260650634766
51756,,-9.567230224609377,
51757,0.5464765429496765,,-3.17590856552124
51776,,-10.797849655151367,
51777,1.2958617210388184,,0.5303156971931458
51796,0.9965864419937134,-11.106701850891112,4.981136798858643
51816,-0.0688332989811897,-10.797849655151367,1.3299790620803833
51836,1.3437457084655762,-11.075576782226562,0.973242998123169
51856,1.8393454551696775,-9.394847869873049,1.047463297843933
51876,2.0452468395233154,-8.822632789611816,1.138442873954773
51895,2.801814556121826,-9.344569206237791,2.1296424865722656
51915,2.8856115341186523,-10.02691650390625,2.141613483428955
51935,2.7036523818969727,-10.345345497131348,1.4233529567718506
51955,2.416347980499268,-10.225635528564451,0.7577648162841797
51975,1.66696298122406,-9.823410034179688,0.0945709645748138
51995,0.7236474752426147,-9.586383819580078,-0.0179565120488405
52014,0.4339490532875061,-9.703699111938477,
52034,0.919972002506256,-9.6989107131958,0.9181763529777528
52054,1.3796586990356443,-9.531316757202148,1.0594342947006226
52074,1.975814938545227,-9.65342140197754,0.7026981711387634
52094,2.40198278427124,-9.84495735168457,0.2358288615942001
52113,,-9.66299819946289,
52114,1.6286556720733645,,-0.0107739074155688
52133,,-9.727641105651855,
52134,0.8505401611328125,,-0.120907187461853
52153,,-9.947908401489258,
52154,0.6805518269538879,,-0.5614402890205383
52173,,-9.734824180603027,
52174,1.104325532913208,,-1.3108254671096802
52193,2.2439656257629395,-8.463502883911133,-1.1192892789840698
52213,3.627814054489136,-7.857769966125488,0.4824316501617431
52232,4.506485939025879,-9.078812599182127,0.3196259140968323
52252,4.109048843383789,-10.204087257385254,-0.4177882075309753
52272,3.048417329788208,-9.892841339111328,-0.456095427274704
52292,2.1529858112335205,-10.122684478759766,-0.6787561774253845
52312,1.7483657598495483,-11.312602996826172,-1.5167267322540283
52332,2.1481974124908447,-11.865663528442385,-1.4281413555145264
52351,,-11.66694450378418,
52352,2.3971943855285645,,-0.788889467716217
52371,0.8696937561035156,-10.745177268981934,-0.8655039072036743
52391,-1.73519766330719,-10.48660373687744,-0.7170634269714355
52411,-2.4438812732696533,-11.836933135986328,0.5590460896492004
52431,-2.118269920349121,-13.390769958496094,1.557428240776062
52451,-1.0217255353927612,-14.10663604736328,0.8248024582862854
52471,0.4315548539161682,-14.982913970947266,-0.6260837316513062
52490,,-14.381969451904297,
52491,1.1186907291412354,,-0.93254154920578
52510,1.4634557962417605,-11.875240325927734,-0.4656722247600555
52530,0.900818407535553,-9.911994934082031,0.0610521435737609
52550,-0.1406593471765518,-8.968679428100586,0.4129997789859772
52570,-0.2890998423099518,-8.219294548034668,-0.0107739074155688
52589,,-7.345410823822021,
52590,-0.2148796021938324,,-0.4608838260173797
52609,0.352546215057373,-6.612784862518311,-0.6380547285079956
52629,,-5.841852188110352,
52630,0.7715315222740173,,-0.992396593093872
52649,0.6733692288398743,-4.697423934936523,-1.483207941055298
52669,0.3621230125427246,-3.7421371936798096,-1.9357120990753172
52689,0.2328361123800277,-4.201824188232422,-2.900575399398804
52709,1.1402385234832764,-5.374982833862305,-3.932476282119751
52728,1.9734207391738887,-7.326257228851318,-5.261258125305176
52748,2.095525026321411,-10.04846477508545,-6.71453857421875
52768,0.3333925902843475,-12.267889976501465,-8.072051048278809
52788,-1.7088614702224731,-10.51054573059082,-7.624335289001465
52808,-2.0655975341796875,-8.69334602355957,-2.697068214416504
52828,-1.4071919918060305,-9.23443603515625,-1.849520802497864
52847,0.9415197968482972,-10.687716484069824,0.4393360018730163
52867,2.339733600616455,-11.717223167419434,3.6619315147399902
52887,2.8832173347473145,-11.60708999633789,2.1344308853149414
52907,2.3133974075317383,-11.626243591308594,2.5725696086883545
52927,1.063624143600464,-11.30302619934082,0.3986345827579498
52947,2.2463598251342773,-10.57040023803711,0.3579331636428833
52967,3.314173698425293,-10.491392135620115,2.551021814346313
52986,2.5264813899993896,-10.642226219177246,2.234987258911133
53006,1.7579425573349,-10.457873344421388,1.2533645629882812
53026,1.9686323404312132,-10.122684478759766,0.8248024582862854
53046,2.339733600616455,-10.096348762512209,0.2142810523509979
53066,2.409165382385254,-10.21845245361328,-0.2932897210121155
53085,,-10.050858497619627,
53086,2.7108349800109863,,-0.6883329749107361
53105,3.069965124130249,-9.423578262329102,
53106,,,-0.8750807046890259
53125,,-8.884882926940918,
53126,2.943072557449341,,-0.6212953329086304
53145,2.3277626037597656,-8.432378768920898,-0.6643909811973572
53165,1.3820528984069824,-8.058882713317871,-0.7194576263427734
53185,0.6805518269538879,-7.8960771560668945,-0.5805938839912415
53204,,-8.063671112060547,
53205,0.6446388363838196,,-0.2454056739807129
53224,1.2336124181747437,-8.798690795898438,-0.3315969407558441
53244,1.7842788696289062,-9.402029991149902,-0.2477998733520507
53264,2.076371431350708,-9.217676162719728,-0.2956839203834533
53284,2.035670042037964,-8.597578048706055,-0.2286462634801864
53304,1.83695125579834,-8.753201484680176,0.3052607178688049
53323,,-9.428366661071776,
53324,2.0644004344940186,,0.930147349834442
53343,2.5911247730255127,-9.99100399017334,0.7984662652015686
53363,2.916736125946045,-10.606313705444336,0.2597708702087402
53383,3.201646327972412,-10.730812072753906,0.1328781992197036
53403,4.046799659729004,-10.254365921020508,0.606930136680603
53423,4.8919525146484375,-10.527304649353027,1.2437877655029297
53442,,-11.745953559875488,
53443,4.896740913391113,,
53444,,,1.4113819599151611
53462,,-12.622231483459473,
53463,2.804208755493164,,0.606930136680603
53482,-2.410362482070923,-12.61265468597412,-2.539050817489624
53502,-4.150947093963623,-11.051634788513184,-2.7545289993286133
53522,-2.2643163204193115,-8.81784439086914,-0.5446808934211731
53541,-1.6729484796524048,-9.691728591918944,-0.3387795388698578
53561,-0.6817489266395569,-13.637372970581056,
53562,,,1.1504138708114624
53582,-1.9674352407455444,-17.470489501953125,0.6380547285079956
53601,-1.4742296934127808,-16.057910919189453,-0.3268085420131683
53621,-1.3593080043792725,-13.326127052307127,-0.4991910457611084
53641,,-13.242329597473145,
53642,-1.0959458351135254,,0.7601590156555176
53660,,-12.4785795211792,
53661,-0.0472854822874069,,-0.0323217213153839
53680,,-11.006145477294922,
53681,-0.1981201916933059,,-1.1815385818481443
53781,-0.9570821523666382,-9.730035781860352,-1.8064252138137815
53820,0.6877344250679016,-3.778050184249878,-0.568622887134552
53887,-0.7655459642410278,-4.062960147857666,-0.9852139949798584
53954,1.1378443241119385,-4.242525577545166,-3.2740707397460938
54020,2.4426841735839844,-17.298107147216797,
54021,-1.5173252820968628,,-9.455899238586426
54089,0.7499836683273315,-12.78264331817627,-3.989937067031861
54155,,-9.68694019317627,
54156,0.5895721912384033,-7.036558628082275,0.1472434103488922
54221,1.0971429347991943,-8.219294548034668,2.297236442565918
54316,2.050035238265991,-9.615114212036133,
54317,,,0.3986345827579498
54416,1.932719349861145,-9.6989107131958,1.535880446434021
54515,0.4195838570594787,-9.660603523254396,0.1256955862045288
54614,3.0196869373321533,-9.885659217834473,0.7817068696022034
54687,,-13.060370445251465,
54688,3.014898538589477,,-1.04028058052063
54754,-2.956240653991699,-9.078812599182127,0.910993754863739
54852,0.656609833240509,-13.951013565063477,0.424970805644989
54951,0.2064998894929886,-8.645462036132812,-0.4010287821292877
55050,0.8505401611328125,-4.508281707763672,-1.4760253429412842
55149,2.1984755992889404,-6.718130111694336,-5.261258125305176
55248,,-10.943896293640137,
55249,-3.710414171218872,,-4.090493679046631
55287,0.4243722558021545,-7.965508937835693,2.3475148677825928
55367,1.777096152305603,-8.978256225585938,1.042674899101257
55467,1.326986312866211,-9.402029991149902,0.3986345827579498
55487,1.9399019479751587,-9.224859237670898,1.260547161102295
55518,2.2152352333068848,-9.823410034179688,0.8391677141189575
55605,,-9.859322547912598,
55606,2.236783027648926,-9.141061782836914,0.8176198601722717
55687,0.9463081955909728,-9.66299819946289,-0.1687912195920944
55784,3.321356296539306,-10.711658477783203,0.9636662006378174
55820,0.0843956097960472,-12.847286224365234,-2.6132712364196777
55889,-2.094327926635742,-10.560823440551758,-1.3898340463638306
55982,1.080383539199829,-14.329297065734863,0.4800374507904053
56021,0.4435258507728576,-9.265560150146484,0.6356605291366577
56101,1.0947487354278564,-8.916007041931152,0.2980781197547912
56200,-0.1622071713209152,-4.6950297355651855,-0.2908954918384552
56220,1.91595995426178,-9.15542697906494,-2.8838160037994385
56320,2.6868927478790283,-11.379640579223633,-5.0050787925720215
56419,1.2647370100021362,-10.98699188232422,
56420,1.2910733222961426,,0.7050924301147461
56518,0.2256535142660141,-7.690176010131836,
56519,0.1442506462335586,,2.493561029434204
56548,2.141014814376831,-10.608707427978516,1.2270283699035645
56636,,-10.51054573059082,
56637,1.6956933736801147,-10.3549222946167,0.7936778664588928
56736,1.726817965507507,-9.153033256530762,1.7274165153503418
56835,1.4945803880691528,-8.966285705566406,0.1496376097202301
56934,2.1529858112335205,-8.49941635131836,1.071405291557312
56953,0.4770447015762329,-10.910377502441406,0.0490811355412006
57053,-0.284311443567276,-11.899182319641112,-0.0538695380091667
57086,-0.291494071483612,-9.725247383117676,
57087,,,-1.4449007511138916
57154,-1.423951506614685,-8.966285705566406,-1.334767460823059
57252,-0.3609259128570556,-8.379706382751465,-1.543063044548035
57287,-0.8732850551605225,-9.275136947631836,-3.092111587524414
57370,-1.103128433227539,-9.337387084960938,-3.075352191925049
57469,,-8.71489429473877,
57470,-0.5404910445213318,,-2.5270798206329346
57541,-1.675342679023743,-10.050858497619627,-2.663549423217773
57620,,-10.204087257385254,
57621,-1.809417963027954,-11.4849853515625,-1.6723499298095703
57687,-2.271498918533325,-7.558494567871094,-0.089782565832138
57787,,-10.237606048583984,
57790,4.288613796234131,,3.2094273567199707
57820,0.374094009399414,-9.306262016296388,-0.4201824069023132
57888,0.6805518269538879,-9.17697525024414,0.4728548228740692
57985,,-9.68694019317627,
57987,2.543240785598755,,0.6260837316513062
58020,0.2376245260238647,-9.861717224121094,0.3675099611282348
58104,,-9.622296333312988,
58105,0.5488707423210144,,0.934935748577118
58203,,-11.523292541503906,
58204,2.1505916118621826,,0.1472434103488922
58302,,-12.15296745300293,
58303,1.0540473461151123,,-2.127248287200928
58354,4.413112163543701,-12.09550666809082,2.304419040679932
58421,2.478597402572632,-12.229581832885742,-0.4680664241313934
58500,,-9.682151794433594,
58501,1.9877859354019165,,0.4824316501617431
58532,0.2352303117513656,-6.244078159332275,0.0347159244120121
58619,,-5.547365188598633,
58620,-0.5213374495506287,,-0.5351040959358215
58718,2.5288755893707275,-5.178658485412598,-4.990713596343994
58737,1.3557167053222656,-9.198522567749023,-6.051344871520996
58757,2.44747257232666,-7.805097579956055,-4.705803394317627
58776,,-10.199298858642578,
58777,1.999756932258606,,-0.2956839203834533
58796,-1.1558008193969729,-14.192827224731444,
58797,,,0.9804255962371826
58816,-2.2475569248199463,-13.709198951721191,-1.2749123573303225
58836,-0.8637082576751709,-11.295844078063965,-1.2844891548156738
58856,0.5297171473503113,-7.534552574157715,1.768117904663086
58875,,-5.458779811859131,
58876,1.5831658840179443,,2.3259668350219727
58895,,-7.929595947265625,
58896,3.062782526016236,,3.013102769851685
58915,4.365228176116943,-10.87446403503418,2.5055320262908936
58935,4.377199172973633,-11.836933135986328,1.0546458959579468
58955,3.421912670135498,-10.57758331298828,-0.0634463429450988
58975,1.5711948871612549,-9.198522567749023,-0.3220201432704925
58994,,-8.884882926940918,
58995,-0.2292448133230209,,-0.2334346622228622
59014,-0.964264750480652,-9.272743225097656,-0.1831564307212829
59034,-0.7296329736709595,-9.433155059814451,0.0778115540742874
59054,-0.0113724581897258,-9.48343276977539,0.2214636504650116
59074,1.0205284357070925,-9.50498104095459,0.3196259140968323
59093,,-9.346963882446287,
59094,1.920748353004456,,0.2047042399644851
59113,2.1074960231781006,-9.227252960205078,-0.0873883590102195
59133,1.8201918601989744,-9.320627212524414,-0.1041477769613266
59153,1.492186188697815,-9.33499240875244,-0.0275333188474178
59173,1.4036006927490234,-9.339780807495115,-0.0035913025494664
59193,1.4730325937271118,-9.622296333312988,
59194,,,-0.1256955862045288
59212,,-9.871294021606444,
59213,1.5759832859039309,,-0.5231330990791321
59232,,-9.854534149169922,
59233,1.6286556720733645,,-0.2813186943531036
59252,1.7651251554489136,-10.031704902648926,0.3890577852725982
59272,2.1481974124908447,-10.070012092590332,0.5039794445037842
59292,2.9957449436187744,-9.672574996948242,0.2070984542369842
59312,4.018068790435791,-9.780313491821287,-0.424970805644989
59332,4.808155536651611,-10.505757331848145,-0.767341673374176
59351,,-11.657367706298828,
59352,5.27263069152832,,-0.3435679376125335
59371,5.045181751251221,-13.038822174072266,-0.6883329749107361
59391,3.2638955116271973,-12.576741218566896,-1.3970166444778442
59411,0.8409633636474609,-10.790667533874512,-1.0450690984725952
59431,-0.0113724581897258,-9.710882186889648,0.8966285586357117
59450,,-9.445125579833984,
59451,-0.0736217051744461,,2.788047790527344
59470,,-11.389217376708984,
59471,1.2384008169174194,,3.185485363006592
59490,2.485780000686645,-12.492944717407228,1.7705121040344238
59510,3.158550500869751,-14.087482452392578,0.2932897210121155
59530,3.3261446952819824,-13.747506141662598,-0.5111620426177979
59550,3.1633388996124268,-11.793837547302246,0.50876784324646
59569,,-10.259154319763184,
59570,2.89997673034668,,1.092953085899353
59589,,-9.86889934539795,
59590,2.847304344177246,,1.2461819648742676
59609,3.00053334236145,-9.938331604003906,0.9085995554924012
59629,2.4809916019439697,-9.232041358947754,0.5398924946784973
59649,1.7052701711654663,-8.152256965637207,0.3986345827579498
59669,0.7763199210166931,-6.94079065322876,0.6715735793113708
59688,,-6.019022941589356,
59689,-0.2364274114370346,,0.8248024582862854
59708,-0.5500678420066833,-5.714959621429443,
59709,,,0.8990227580070496
59728,-1.007360339164734,-5.676652431488037,0.1041477769613266
59748,-1.546055793762207,-5.56173038482666,-1.4257471561431885
59768,-0.8589198589324951,-5.808333396911621,-2.385822057723999
59788,0.7140706777572632,-7.3669586181640625,-2.98437237739563
59807,1.908777356147766,-9.184157371520996,-4.928464412689209
59828,3.534440279006958,-12.174515724182127,-7.217320919036865
59847,5.468955039978027,-13.81215000152588,-6.886921405792236
59867,6.412270545959473,-11.73158836364746,-5.359420299530029
59887,4.226364612579346,-8.585607528686523,-3.728969097137451
59907,2.0380642414093018,-6.876147270202637,-4.95001220703125
59927,2.785055160522461,-8.513781547546387,-0.9205705523490906
59946,0.6973112225532532,-11.978191375732422,3.357867956161499
59966,-2.0033483505249023,-14.554351806640623,0.1783680319786071
59986,-2.381632089614868,-13.259089469909668,-3.494337320327759
60006,-1.6202759742736816,-9.612719535827637,-0.707486629486084
60026,-0.5333084464073181,-5.851428985595703,2.0626046657562256
60045,,-6.14831018447876,
60046,2.3469161987304688,,2.582146644592285
60065,4.865616321563721,-10.213664054870604,2.7281928062438965
60085,5.598242282867432,-12.114660263061523,0.8846575021743774
60105,4.460996150970459,-11.57357120513916,-0.2190694510936737
60125,2.823362350463867,-9.26795482635498,-0.3890577852725982
60145,0.536899745464325,-8.427590370178223,-0.4441244006156921
60165,-0.6841431260108948,-8.877699851989746,-0.4728548228740692
60184,,-9.78989028930664,
60185,-0.1741781681776046,,-0.2477998733520507
60204,0.8361749649047852,-9.81143856048584,-0.0371101275086402
60224,1.3820528984069824,-9.15542697906494,-0.0418985299766063
60244,1.4610615968704224,-8.841787338256836,-0.1735796183347702
60264,1.4754267930984497,-9.009381294250488,-0.2382230758666992
60283,,-9.21288776397705,
60284,1.245583415031433,,-0.2047042399644851
60303,,-9.330204010009766,
60304,0.7906851172447205,,-0.0802057534456253
60323,0.7068880796432495,-9.342175483703612,-0.0059855040162801
60343,1.0660183429718018,-9.591172218322754,-0.1065419763326644
60363,1.6023194789886477,-9.792284965515137,-0.0634463429450988
60383,1.8896236419677732,-10.036493301391602,0.0682347491383552
60402,,-10.438719749450684,
60403,1.8393454551696775,,-0.1161187812685966
60422,2.0667946338653564,-10.505757331848145,-0.0706289485096931
60442,2.9071593284606934,-10.333374977111816,0.2190694510936737
60462,3.824138641357422,-10.81460952758789,0.3794809579849243
60482,4.154538631439209,-11.21204662322998,-0.2765302956104278
60501,3.852869033813477,-11.149797439575195,-1.5143325328826904
60521,,-11.657367706298828,
60522,3.804985046386719,,-1.923741102218628
60541,4.496909141540527,-12.373234748840332,-1.483207941055298
60561,4.415506362915039,-11.473014831542969,-1.387439846992493
60581,4.183269023895264,-9.521739959716797,-0.333991140127182
60601,3.0101101398468018,-9.272743225097656,0.9564836025238036
60620,,-9.579200744628906,
60621,0.2041056901216507,,1.7968484163284302
60640,0.0987608209252357,-11.760318756103516,2.991554975509644
60660,2.095525026321411,-13.433865547180176,3.2381577491760254
60680,4.688445568084717,-13.08910083770752,1.3491326570510864
60700,5.495291233062744,-13.532028198242188,-0.3890577852725982
60720,4.554370403289795,-12.279860496520996,-0.6189011335372925
60739,,-11.513715744018556,
60740,3.333327293395996,,0.5590460896492004
60759,2.3110032081604004,-11.061211585998535,1.1743559837341309
60779,2.1553800106048584,-10.572794914245604,0.7433996200561523
60799,2.2200236320495605,-9.593565940856934,-0.0347159244120121
60819,2.5767595767974854,-8.453926086425781,-0.6787561774253845
60838,,-7.642292022705078,
60839,1.7651251554489136,,-0.7577648162841797
60858,0.9367313981056212,-6.555324077606201,
60859,,,-0.8559271097183228
60878,0.261566549539566,-5.746084213256836,
60879,,,-0.6380547285079956
60898,-0.7368155717849731,-5.461174011230469,-0.8248024582862854
60918,-1.2324153184890747,-5.063736438751221,-1.432929754257202
60938,-0.8517372608184814,-4.517858505249023,-2.6013002395629883
60958,-0.2795230448246002,-4.37420654296875,-3.355473756790161
60977,,-4.651933670043945,
60978,0.6326677799224854,,-3.525461912155152
60997,1.6382324695587158,-5.66228723526001,
60998,,,-4.006696701049805
61017,2.471414804458618,-7.067683219909668,-5.230133533477783
61037,2.823362350463867,-10.232817649841309,-7.418434143066406
61057,2.3995885848999023,-13.498509407043455,-7.183802127838135
61076,,-12.90953540802002,
61077,2.5336639881134038,,-7.262810707092285
61096,2.9718029499053955,-8.80587387084961,
61097,,,-6.439205646514893
61116,2.581547975540161,-8.954314231872559,-6.151901245117188
61136,1.9638439416885376,-13.536816596984863,-1.521515130996704
61156,-0.166995570063591,-17.56625747680664,4.837484359741211
61176,-3.001730442047119,-12.358869552612305,4.32991361618042
61196,-2.3696610927581787,-7.711723804473877,-0.0802057534456253
61215,0.4507084786891937,-6.057330131530762,
61216,,,1.2892776727676392
61235,3.5296518802642822,-7.848193168640137,2.1487960815429688
61255,5.445013046264648,-10.503362655639648,2.163161277770996
61275,4.52803373336792,-11.523292541503906,0.5734112858772278
61295,2.978985548019409,-11.013327598571776,0.5710170865058899
61315,0.5512649416923523,-10.271124839782717,0.8607155084609985
61334,-0.7679402232170105,-9.710882186889648,
61335,,,-0.5231330990791321
61354,-1.1007342338562012,-9.50737476348877,-0.4584896266460418
61374,-0.7727286219596863,-9.761159896850586,-0.2023100405931472
61394,-0.1095347255468368,-9.557653427124023,0.0418985299766063
61414,0.821809709072113,-9.05247688293457,-0.0155623108148574
61433,1.8441338539123533,-9.02135181427002,0.1711854189634323
61453,2.035670042037964,-8.595184326171875,0.5734112858772278
61473,1.9422961473464968,-8.29830265045166,0.970848798751831
61493,1.5209165811538696,-8.38449478149414,0.9852139949798584
61513,0.9941922426223756,-8.439560890197754,0.6093243360519409
61533,0.8361749649047852,-8.83699893951416,0.1089361757040023
61552,1.0540473461151123,-9.576807022094728,
61553,,,-0.1400607973337173
61572,,-9.883264541625977,
61573,1.4395138025283811,,-0.5015852451324463
61592,,-9.500192642211914,
61593,2.1122844219207764,,-0.5327098965644836
61612,2.653373956680298,-9.591172218322754,-0.1233013868331909
61632,3.345298290252685,-10.070012092590332,0.0371101275086402
61652,4.774636745452881,-10.754754066467283,
61653,,,0.2501940727233886
61671,,-12.38999366760254,
61672,6.192004203796387,,0.3890577852725982
61691,6.462548732757568,-14.144943237304688,0.2980781197547912
61711,4.949413299560547,-14.870387077331545,-1.823184609413147
61731,1.3437457084655762,-12.543222427368164,-2.6204538345336914
61751,,-9.885659217834473,
61754,-0.9259575009346008,,-0.3315969407558441
61771,-0.6889315247535706,-8.944737434387207,1.4065934419631958
61790,0.8409633636474609,-10.369287490844728,2.371456861495972
61810,2.02848744392395,-12.078747749328612,2.019509077072144
61830,2.0476410388946533,-12.533645629882812,1.3946224451065063
61850,,-13.781024932861328,
61851,2.234388828277588,,0.606930136680603
61870,1.832162857055664,-13.041216850280762,-0.0347159244120121
61890,1.669357180595398,-11.30063247680664,0.6117185354232788
61909,,-10.3549222946167,
61910,1.83695125579834,,1.291671872138977
61929,2.2679076194763184,-9.96706199645996,0.9493009448051452
61951,2.653373956680298,-10.007762908935549,0.5494692921638489
61969,2.172139406204224,-9.15542697906494,0.456095427274704
61989,1.3102269172668457,-7.90086555480957,0.4010287821292877
62009,0.3716998100280761,-6.57926607131958,0.5781996846199036
62028,,-5.535394191741943,
62029,-0.4830302000045776,,0.4177882075309753
62048,-0.6673837304115295,-4.558559894561768,0.2214636504650116
62068,-0.9163807034492492,-3.993528366088867,-0.6093243360519409
62088,-0.6625953316688538,-3.670311212539673,-1.744175910949707
62108,0.5752069354057312,-4.122815132141113,-2.979583978652954
62128,2.0691888332366943,-5.363011837005615,-4.973954200744629
62147,,-8.889671325683594,
62150,4.200028419494629,,-8.184578895568848
62169,5.605424880981445,-15.595829963684082,-8.119935035705566
62219,4.566341400146484,-18.148048400878903,-7.511807918548584
62308,0.6494272351264954,-7.359776020050049,-6.123170852661133
62407,2.85448694229126,-11.681309700012209,1.1743559837341309
62486,,-12.27267837524414,
62487,4.044404983520508,,0.8343793153762817
62537,,-9.222464561462402,
62538,-1.5029600858688354,,-0.4441244006156921
62619,0.196923092007637,-9.038111686706545,
62620,1.734000563621521,,
62686,1.9399019479751587,-8.561665534973145,0.3292027413845062
62753,1.786673069000244,-10.345345497131348,-0.5710170865058899
62754,,,0.3722983598709106
62820,3.362057685852051,-9.734824180603027,-0.2501940727233886
62886,7.101800918579102,-13.46259593963623,0.6955155730247498
62953,-2.233191728591919,-8.489839553833008,0.3962403833866119
63043,2.251148223876953,-11.001357078552246,1.4305355548858645
63140,,-10.776301383972168,
63141,1.3964180946350098,,0.7362170219421387
63219,,-6.50025749206543,
63220,0.9750386476516724,-5.6910176277160645,-0.0849941596388816
63286,-0.7080851793289185,-4.266467571258545,-1.5286977291107178
63353,4.025251388549805,-8.707711219787598,-6.640318393707275
63419,,-11.987768173217772,
63420,3.309385299682617,,-4.827907562255859
63487,-1.6514005661010742,-11.453861236572266,1.2964602708816528
63529,0.6853402256965637,-6.524199485778809,2.8095955848693848
63555,4.654926776885986,-9.576807022094728,3.228580951690674
63620,5.061941146850586,-11.628637313842772,1.543063044548035
63686,,-8.815450668334961,
63687,-1.1366472244262695,,-0.0418985299766063
63753,1.4562731981277466,-9.641449928283691,1.236605167388916
63819,,-9.32541561126709,
63820,2.090736627578736,,-0.0754173547029495
63886,1.027711033821106,-10.259154319763184,-0.3866635859012604
63974,2.411559581756592,-10.53688144683838,0.6165069341659546
64019,4.784213542938232,-13.57512378692627,-0.0945709645748138
64086,0.4674678742885589,-10.42195987701416,-1.0043675899505615
64172,0.0389057770371437,-10.091560363769531,2.1942858695983887
64219,2.1505916118621826,-10.936713218688965,0.5614402890205383
64311,1.0708067417144775,-10.541669845581056,0.8774749040603638
64352,,-5.327098846435547,
64353,-0.1478419601917266,-4.606443881988525,0.0107739074155688
64419,,-4.527435302734375,
64420,-0.8349778652191162,,-1.1791443824768066
64509,1.5352818965911863,-7.16584587097168,-3.652354717254639
64552,2.646191358566284,-7.022193431854248,-5.388150691986084
64619,,-10.96304988861084,
64620,1.6023194789886477,,0.0825999602675437
64708,-0.3369838893413543,-13.136984825134276,-2.419340848922729
64752,,-12.622231483459473,
64753,1.856104850769043,-11.654973983764648,3.092111587524414
64819,4.082712650299072,-8.916007041931152,1.7178397178649902
64886,0.6302735805511475,-10.144232749938965,-0.1041477769613266
64952,1.5975310802459717,-9.332598686218262,0.2501940727233886
65044,1.5999252796173096,-9.074024200439451,0.7745242714881897
65086,2.124255418777466,-9.720458984375,0.2693476974964142
65153,3.314173698425293,-10.903194427490234,-0.2023100405931472
65154,,,-0.5279214978218079
65242,,-13.029245376586914,
65243,5.567117691040039,-13.069947242736816,-0.4680664241313934
65286,1.975814938545227,-9.208099365234377,2.6874914169311523
65356,2.689286947250366,-13.115436553955078,2.6228480339050293
65441,1.240795016288757,-11.669339179992676,-0.2190694510936737
65487,1.590348482131958,-7.752425193786621,0.1903390288352966
65551,-0.0257376674562692,-5.822698593139648,0.4728548228740692
65619,,-5.190629482269287,
65620,-0.5764040350914001,,-1.2318167686462402
65686,1.422754406929016,-11.848904609680176,-4.887762546539307
65778,4.233547210693359,-9.222464561462402,-4.976348400115967
65819,-0.4423287510871887,-8.968679428100586,1.0259153842926023
65886,0.6015431880950928,-6.04775333404541,-1.5646108388900757
65976,1.9806033372879028,-12.100295066833496,1.8112136125564573
66075,,-9.490615844726562,
66076,2.7730841636657715,,1.5119383335113523
66152,,-9.543288230895996,
66153,2.2176294326782227,-9.069235801696776,1.4664485454559326
66219,,-9.208099365234377,
66220,1.6286556720733645,,1.195903778076172
66286,3.2184057235717773,-9.567230224609377,0.9133879542350768
66353,3.405153274536133,-10.08437728881836,0.4201824069023132
66420,3.5631706714630127,-13.567940711975098,-1.521515130996704
66512,0.6422445774078369,-7.096413612365723,0.6021417379379272
66544,1.7627309560775757,-14.087482452392578,-0.2262520641088485
66620,0.1227028369903564,-11.894393920898438,-0.0921767652034759
66686,1.025316834449768,-8.307879447937012,-1.1743559837341309
66753,0.4171896576881408,-5.7987565994262695,-1.1216834783554075
66819,,-4.266467571258545,
66820,1.3198037147521973,,-2.998737573623657
66886,4.714781761169434,-10.864887237548828,-7.360973358154297
66953,2.009333848953247,-10.345345497131348,-5.313930511474609
67019,,-10.982203483581545,
67020,-0.7200561761856079,,0.180762231349945
67086,1.0420763492584229,-6.48828649520874,2.7234044075012207
67152,,-11.63103199005127,
67153,3.754706859588623,-10.737994194030762,1.4856021404266355
67245,0.656609833240509,-8.834604263305664,
67246,0.9415197968482972,,-0.3986345827579498
67345,2.8856115341186523,-9.344569206237791,0.1448491960763931
67444,1.4873977899551392,-9.974244117736816,0.0395043268799781
67535,4.331709384918213,-9.928754806518556,0.7912836670875549
67584,2.564788579940796,-12.753912925720217,-1.866280198097229
67650,,-8.164227485656738,
67651,0.3429693877696991,-8.099584579467773,0.0849941596388816
67742,2.9239187240600586,-12.375628471374512,1.035492181777954
67784,1.8249802589416504,-8.71489429473877,0.3770867586135864
67880,1.5544354915618896,-8.628703117370605,-0.7936778664588928
67982,0.0389057770371437,-5.552153587341309,-1.4975731372833252
68079,3.759495258331299,-10.086771965026855,-5.4695539474487305
68180,2.421136379241944,-8.2312650680542,-2.4001872539520264
68277,1.5783774852752686,-6.507440090179443,-1.890222191810608
68317,3.539228677749634,-9.20091724395752,1.4879963397979736
68384,1.3724761009216309,-9.255983352661133,
68385,,,-0.7625532150268555
68476,2.121861219406128,-9.35893440246582,0.7529764175415039
68517,0.8672995567321777,-8.901641845703125,1.2988544702529907
68613,,-9.428366661071776,
68614,1.1354501247406006,,0.951695203781128
68713,3.7499184608459473,-10.08437728881836,1.7322049140930176
68812,3.134608507156372,-12.516886711120604,-0.7146692276000977
68850,1.9877859354019165,-7.1921820640563965,0.7194576263427734
68917,,-11.446678161621094,
68918,1.470638394355774,,0.3699041604995727
69010,0.3214215636253357,-11.35809326171875,-0.0730231553316116
69050,0.3956418335437774,-7.041347026824951,-0.4465186297893524
69120,0.2711433470249176,-4.4077253341674805,-0.2908954918384552
69208,0.3405751883983612,-4.661510944366455,-2.404975652694702
69209,,,-4.322731018066406
69250,,-16.297330856323242,
69251,4.379593372344971,,-7.296329498291016
69347,1.3150153160095217,-8.899248123168945,
69348,-0.2483984231948852,,-4.413711071014404
69446,,-7.874529361724853,
69447,1.9686323404312132,,-0.6212953329086304
69518,2.787449359893799,-11.726799964904783,2.213439464569092
69584,1.470638394355774,-8.571242332458496,1.1097124814987185
69650,,-9.583989143371582,
69651,1.1737574338912964,,0.4010287821292877
69744,1.4610615968704224,-9.409213066101074,0.1137245818972587
69784,1.956661343574524,-9.526528358459473,0.6093243360519409
69882,,-9.672574996948242,
69883,2.27748441696167,,1.0450690984725952
69982,4.207211017608643,-10.596736907958984,0.707486629486084
70081,-0.4112041294574737,-11.59751319885254,0.1161187812685966
70116,1.8441338539123533,-12.425907135009766,0.2717418968677521
70183,,-12.33013916015625,
70184,2.9263129234313965,,0.0275333188474178
70279,2.337339401245117,-10.17296314239502,0.4920084476470947
70316,1.777096152305603,-7.417236804962158,-0.6763619780540466
70384,1.911171555519104,-6.976703643798828,-1.0594342947006226
70477,2.3684639930725098,-7.4986395835876465,-2.630030632019043
70516,,-9.74679470062256,
70517,3.929483652114868,,-3.468001127243042
70547,,-8.26239013671875,
70548,2.6414029598236084,,-3.3746273517608643
70636,1.6717513799667358,-8.56884765625,-2.558204412460327
70717,-0.7775170207023621,-14.13057804107666,-0.5446808934211731
70814,,-9.045293807983398,
70815,5.2271409034729,,-0.2501940727233886
70850,0.9367313981056212,-9.60553741455078,0.3746925592422485
70917,,-9.560047149658203,
70918,1.10193133354187,-9.241618156433104,0.3363853394985199
71012,,-9.864110946655272,
71013,2.2463598251342773,-10.012551307678224,0.3914519846439361
71112,1.6262614727020264,-9.792284965515137,0.6572083830833435
71211,1.7507599592208862,-9.62947940826416,0.7841010689735413
71252,2.143409013748169,-10.110713958740234,0.6021417379379272
71351,2.416347980499268,-11.21444034576416,0.9995791912078856
71352,,,0.7170634269714355
71384,0.9391255974769592,-9.038111686706545,-2.7473464012146
71450,,-11.547234535217283,
71451,,-12.401965141296388,
71452,0.0604535937309265,,-3.791218280792236
71539,3.7882256507873535,-8.554482460021973,
71540,4.183269023895264,,3.58292293548584
71584,0.8481459617614746,-12.306197166442873,-1.5957354307174685
71650,,-10.591948509216309,
71651,1.9638439416885376,,-0.1472434103488922
71747,0.8170213103294373,-7.436390399932861,-0.2932897210121155
71846,,-5.9304375648498535,
71847,1.7723077535629272,-5.918466567993164,-3.147178173065185
71917,3.0771477222442627,-9.059659004211426,-3.891774892807007
71984,,-14.681244850158691,
71985,0.800261914730072,,-0.2549824714660644
72064,1.080383539199829,-8.35097599029541,-0.767341673374176
72117,2.8401217460632324,-11.142614364624023,1.4257471561431885
72184,1.0708067417144775,-9.258378028869627,0.9085995554924012
72282,1.0468647480010986,-9.785101890563965,0.8870517015457153
72381,1.075595140457153,-9.301473617553713,0.930147349834442
72409,,-9.847352027893066,
72410,2.239177227020264,,0.0371101275086402
72466,,-9.983820915222168,
72467,2.497750997543335,-9.93354320526123,0.9684545993804932
72531,3.096301317214966,-9.804255485534668,1.069011092185974
72600,6.6397199630737305,-12.476184844970703,1.0594342947006226
72667,-0.679354727268219,-8.978256225585938,0.6979097723960876
72733,1.2144588232040403,-12.737153053283691,1.0283095836639404
72800,2.7012581825256348,-11.097125053405762,0.2956839203834533
72867,1.5352818965911863,-9.174580574035645,-0.5973533391952515
72934,0.7284358739852905,-6.586448669433594,-0.5758054852485657
73000,0.7428010702133179,-4.915296077728272,-1.6867151260375977
73001,,,-2.6443958282470703
73067,,-7.223306655883789,
73070,4.355651378631592,,-7.023390769958496
73135,4.226364612579346,-14.36521053314209,-4.696226596832275
73200,,-8.17380428314209,
73201,0.6087257862091064,-11.046846389770508,-3.7026329040527344
73267,,-11.856086730957031,
73268,1.5185223817825315,,0.8008604645729065
73334,2.96701455116272,-7.501033782958984,3.1064767837524414
73400,,-8.741230010986328,
73401,1.4873977899551392,-8.497021675109863,0.180762231349945
73467,0.0101753575727343,-9.87608242034912,0.4417302012443542
73522,2.7108349800109863,-9.66539192199707,1.0211269855499268
73533,1.513733983039856,-8.954314231872559,0.7050924301147461
73630,0.8194155097007751,-9.32541561126709,0.7050924301147461
73666,3.448249101638794,-9.521739959716797,0.8463503122329712
73733,,-9.768342971801758,
73734,4.010886192321777,,1.5837644338607788
73800,4.599860191345215,-13.826515197753906,
73801,0.9702502489089966,,0.9038111567497252
73867,,-9.126696586608888,
73868,0.8265981078147888,,0.5710170865058899
73934,-0.1574187576770782,-10.194510459899902,0.7026981711387634
74000,2.411559581756592,-10.647014617919922,-0.4728548228740692
74067,1.3605051040649414,-9.75637149810791,-0.1256955862045288
74165,,-6.5696892738342285,
74166,0.5752069354057312,,-1.2006921768188477
74265,1.489791989326477,-5.181052684783936,-3.336320161819458
74364,,-14.511256217956545,
74365,2.694075345993042,-9.66299819946289,-5.855020046234131
74400,-0.253186821937561,-12.75151824951172,0.4417302012443542
74467,0.67815762758255,-12.600683212280272,-1.222239971160889
74533,,-8.216899871826172,
74534,3.7882256507873535,,2.9053637981414795
74553,3.3261446952819824,-9.706093788146973,0.2406172752380371
74601,1.635838270187378,-8.559270858764648,-0.2501940727233886
74667,-0.087986908853054,-9.428366661071776,-0.2932897210121155
74733,2.425924777984619,-9.279925346374512,
74734,,,0.6931213736534119
74800,2.07397723197937,-8.935160636901855,0.1256955862045288
74899,,-9.794678688049316,
74900,2.6390087604522705,,0.1304839998483657
74999,4.116231441497803,-10.594342231750488,0.5303156971931458
75098,2.3038206100463867,-10.187328338623049,-0.2717418968677521
75133,5.9286417961120605,-13.232752799987791,-0.3866635859012604
75200,5.205593109130859,-11.88002872467041,-0.2525882720947265
75267,2.7730841636657715,-9.679757118225098,0.3627215623855591
75333,,-7.757213592529297,
75334,1.872864246368408,-7.328651428222656,-0.0442927330732345
75416,-0.8517372608184814,-6.780379295349121,-1.404199242591858
75467,6.735487937927246,-9.437943458557127,-5.385756492614746
75534,8.861538887023926,-12.466608047485352,-5.184643745422363
75633,0.7523778676986694,-10.467450141906738,1.681926727294922
75732,-0.9906009435653688,-5.020640850067139,2.383427858352661
75733,,,4.404133796691895
75831,2.318185806274414,-8.911218643188477,0.2669534981250763
75832,,,-0.2621650993824005
75866,2.3062148094177246,-9.84495735168457,0.5997475385665894
75950,2.4355015754699707,-9.35654067993164,
75951,2.090736627578736,,0.3746925592422485
76049,,-9.29189682006836,
76050,0.702099621295929,-9.65581512451172,0.7697358727455139
76149,2.167351007461548,-10.230423927307127,0.5781996846199036
76200,4.793790340423584,-12.042834281921388,0.93254154920578
76267,3.752312660217285,-10.12747287750244,-1.8997989892959597
76347,-0.3513490855693817,-9.01895809173584,1.7848774194717407
76400,2.758718967437744,-11.999738693237305,-0.7218518257141113
76467,1.561618089675903,-10.481815338134766,-0.0490811355412006
76534,,-8.092401504516602,
76535,1.0732009410858154,-7.105990409851074,-0.393846184015274
76600,0.5345055460929871,-5.288791656494141,-0.5925649404525757
76684,1.0899603366851809,-5.137956619262695,-2.469619035720825
76783,,-13.218387603759766,
76784,6.534375190734863,,-5.292382717132568
76882,-0.0568622909486293,-15.737088203430176,-0.2525882720947265
76883,,,1.1528080701828003
76934,2.382829189300537,-9.366117477416992,3.9157168865203857
77001,5.217564105987549,-11.504138946533203,2.1128830909729004
77080,,-9.289502143859863,
77081,-0.4782418012619018,,0.5614402890205383
77133,,-9.48343276977539,
77134,2.761113166809082,-9.351752281188965,1.116895079612732
77219,,-9.138668060302734,
77220,2.0213048458099365,,1.0019733905792236
77319,,-8.923190116882324,
77320,3.541622877120972,,0.4321534037590027
77418,6.002861976623535,-12.148179054260254,0.6189011335372925
77517,,-9.114726066589355,
77518,-2.0703859329223637,,1.013944387435913
77562,,-11.049241065979004,
77563,2.890399932861328,,-0.4728548228740692
77628,0.6853402256965637,-9.65342140197754,0.0921767652034759
77686,0.5608417391777039,-7.723694801330566,-1.1216834783554075
77687,,,-1.2054805755615234
77753,,-5.238513469696045,
77754,0.9654618501663208,-5.188235282897949,-1.0115501880645752
77834,1.3341689109802246,-5.616796970367432,-2.1942858695983887
77887,5.037999153137207,-15.2151517868042,-6.733692169189453
77954,0.5512649416923523,-9.35654067993164,-5.404910564422607
78052,2.3086090087890625,-8.827422142028809,1.6148890256881714
78151,,-10.002974510192873,
78152,2.497750997543335,,2.541445016860962
78220,0.3214215636253357,-9.275136947631836,
78221,0.4267664551734924,,0.851138710975647
78287,2.174533605575561,-9.524134635925291,1.4544775485992432
78372,,-9.464279174804688,
78373,2.0835540294647217,-9.533711433410645,0.8750807046890259
78421,3.0340521335601807,-9.615114212036133,1.648407816886902
78487,,-9.847352027893066,
78488,3.3405098915100098,,1.744175910949707
78520,5.67964506149292,-10.53688144683838,
78521,6.613383769989014,,-0.4872200489044189
78607,,-11.05402946472168,
78608,5.593453884124756,-10.953473091125488,-0.52552729845047
78687,0.4698620736598968,-13.050793647766112,-0.1544260084629058
78753,,-10.714052200317385,
78754,2.2463598251342773,-9.806650161743164,-0.7793126702308655
78820,-0.1981201916933059,-8.662221908569336,-0.4489128291606903
78821,,,-0.7625532150268555
78887,-0.0377086773514747,-6.301538944244385,-0.7050924301147461
78954,1.4131776094436646,-5.5114521980285645,-2.3738510608673096
79020,,-7.706935405731201,
79021,5.172074317932129,,-6.336254596710205
79104,2.5049335956573486,-13.929465293884276,-5.756857872009277
79154,1.4083890914916992,-11.168951034545898,0.3986345827579498
79220,1.8608932495117188,-9.47385597229004,3.70742130279541
79301,,-9.47146224975586,
79302,2.737171173095703,,3.159149169921875
79353,,-8.868123054504395,
79354,0.9056068062782288,-9.315838813781738,0.3411737382411957
79420,1.0947487354278564,-9.3828763961792,0.7481880187988281
79520,2.876034736633301,-9.24640655517578,0.4967968463897705
79549,,-9.157821655273438,
79550,2.483385801315308,,0.7553706169128418
79620,2.739565372467041,-10.35252857208252,1.8183962106704712
79718,4.868010520935059,-10.441113471984863,0.4800374507904053
79753,-0.2771288454532623,-8.944737434387207,
79754,,,0.120907187461853
79837,-0.9714473485946656,-7.893682956695557,0.4704606235027313
79887,2.631826162338257,-12.768278121948242,-0.6045359373092651
79954,1.4203602075576782,-10.26394271850586,-0.1616086214780807
80035,0.9271546006202698,-8.822632789611816,-0.8678981065750122
80087,0.8122329115867615,-5.633556365966797,-1.6508020162582395
80155,,-5.954379558563232,
80156,0.9654618501663208,-6.033388137817383,-2.618059635162353
80234,4.52803373336792,-9.040505409240724,-6.269217014312744
80288,-0.6218938827514648,-10.45547866821289,-2.014720678329468
80354,0.2711433470249176,-11.075576782226562,0.0035913025494664
80454,0.0652419999241828,-6.576871871948242,-0.5159504413604736
80486,,-8.808267593383789,
80487,2.160168409347534,,0.1017535701394081
80542,0.9870096445083618,-8.731653213500977,-0.2190694510936737
80620,1.4012064933776855,-9.99100399017334,0.3770867586135864
80621,,,0.1137245818972587
80687,2.3133974075317383,-9.01895809173584,0.1687912195920944
80769,1.7818846702575684,-9.263166427612305,-0.6428431272506714
80820,3.287837505340576,-9.785101890563965,0.9014169573783876
80887,2.6653449535369877,-10.87446403503418,-0.3459621369838714
80967,4.291007995605469,-12.054805755615234,0.0323217213153839
81020,,-12.746729850769045,
81021,6.287772178649902,,4.073734283447266
81106,5.277419090270996,-12.02846908569336,1.6675615310668943
81107,,,0.872686505317688
81154,3.5847184658050537,-9.500192642211914,0.4632780253887176
81220,1.8010382652282717,-9.208099365234377,0.1424549967050552
81304,,-7.1490864753723145,
81305,0.1777694821357727,,-1.057040095329285
81354,2.4690206050872803,-6.145915985107422,-1.7154455184936523
81420,,-8.789113998413086,
81421,5.234323501586914,-9.916783332824709,-3.276464939117432
81502,,-8.564059257507324,
81503,2.876034736633301,-8.791508674621582,-3.6116533279418954
81533,2.785055160522461,-12.586318016052246,
81534,,,-1.5143325328826904
81620,1.63344407081604,-9.75637149810791,0.9612720012664796
81687,2.5743653774261475,-11.33654499053955,1.849520802497864
81753,1.8872294425964355,-9.248801231384276,-0.2885012924671173
81842,1.3341689109802246,-9.308655738830566,0.3890577852725982
81887,0.3190273642539978,-9.373299598693848,1.2653355598449707
81954,0.9391255974769592,-9.694122314453123,1.555034041404724
82039,2.449866771697998,-9.694122314453123,0.6021417379379272
82088,,-11.118672370910645,
82089,3.242347717285156,,1.578976035118103
82155,2.9765913486480717,-12.507309913635254,-0.1089361757040023
82238,0.1538274586200714,-8.858546257019043,0.7529764175415039
82287,0.8696937561035156,-13.94861888885498,-0.3148375153541565
82354,1.0516531467437744,-10.745177268981934,-0.4034229815006256
82420,,-10.074800491333008,
82421,0.558447539806366,,-0.5973533391952515
82487,,-6.217741966247559,
82488,0.014963760972023,,-0.6260837316513062
82525,0.9367313981056212,-5.60722017288208,-1.6747441291809082
82613,2.095525026321411,-6.430825710296631,
82614,3.24953031539917,,-2.4217350482940674
82687,4.0970778465271,-9.734824180603027,-3.827131509780884
82717,0.5009866952896118,-8.152256965637207,1.6340426206588743
82780,,-15.447389602661133,
82781,0.1011550202965736,-14.654908180236816,-0.7841010689735413
82871,-1.953070044517517,-5.729324817657471,0.1616086214780807
82914,3.043628931045532,-9.05487060546875,
82915,1.1665748357772827,,0.3363853394985199
82982,-0.1526303589344024,-9.196128845214844,0.52552729845047
83069,,-9.423578262329102,
83070,0.6925228238105774,,0.9205705523490906
83114,1.0372878313064575,-9.38048267364502,0.5398924946784973
83180,1.6286556720733645,-9.988609313964844,0.6955155730247498
83181,,,1.138442873954773
83247,3.2399535179138184,-9.023746490478516,
83248,,,1.222239971160889
83314,3.87202262878418,-10.967838287353516,-0.0323217213153839
83406,,-11.152191162109377,
83407,3.1513679027557373,-9.615114212036133,-2.6420016288757324
83505,,-13.165715217590332,
83506,2.3277626037597656,-13.90312957763672,0.2334346622228622
83605,0.7092822790145874,-9.368511199951172,-0.1280897855758667
83647,-0.6314706802368164,-6.84981107711792,-0.4872200489044189
83714,0.0580593906342983,-5.367800235748291,-1.4089876413345337
83803,2.6844985485076904,-6.871358871459961,-2.9508535861968994
83847,6.809708118438721,-9.14585018157959,-3.851073503494263
83942,0.9319429993629456,-15.150507926940918,0.6643909811973572
84041,0.1203086376190185,-9.289502143859863,2.223016262054444
84140,0.7882909178733826,-9.612719535827637,2.0458452701568604
84239,,-9.399636268615724,
84240,1.8154034614562988,,1.7753005027770996
84338,0.3812766075134277,-9.610325813293455,-0.1304839998483657
84380,4.657320976257324,-9.799467086791992,2.756923198699951
84448,2.203263998031616,-10.5344877243042,-0.2214636504650116
84536,,-11.379640579223633,
84537,4.5639472007751465,,-0.3794809579849243
84580,0.5297171473503113,-12.60547161102295,0.788889467716217
84676,1.370081901550293,-14.915876388549805,-0.1185129806399345
84775,-0.3130418658256531,-9.950302124023438,0.3770867586135864
84874,0.3477577865123749,-5.700594425201416,-0.7122750282287598
84973,5.564723491668701,-5.676652431488037,-4.851849555969238
85072,-2.405574083328247,-11.592724800109863,-4.442441463470459
85114,4.970961093902588,-9.217676162719728,2.337938070297241
85211,-1.5628151893615725,-8.951920509338379,-0.456095427274704
85310,1.932719349861145,-9.63187313079834,0.6428431272506714
85409,,-9.296685218811035,
85410,1.4155718088150024,-9.277531623840332,0.9660604000091552
85508,1.7244237661361694,-9.437943458557127,0.5805938839912415
85539,1.9422961473464968,-9.454702377319336,2.2158336639404297
85581,2.7012581825256348,-9.74679470062256,2.7042508125305176
85647,4.520851135253906,-10.769119262695312,2.6132712364196777
85714,0.67815762758255,-12.588712692260742,-1.1073182821273804
85805,,-6.737283706665039,
85806,2.44747257232666,-8.458714485168457,1.380257248878479
85847,-0.4279635548591614,-14.216769218444824,-0.3555389642715454
85945,2.08594822883606,-10.881647109985352,-1.6508020162582395
86044,-1.469441294670105,-8.439560890197754,-2.1128830909729004
86143,3.539228677749634,-5.963956356048584,-3.872621297836304
86242,0.982221245765686,-8.221688270568848,-4.406527996063232
86341,-0.1286883354187011,-11.839327812194824,2.5438392162323
86342,,,-0.1280897855758667
86381,0.1777694821357727,-9.38048267364502,0.9493009448051452
86447,3.4841620922088623,-10.12747287750244,1.0043675899505615
86531,,-9.141061782836914,
86535,0.6518214344978333,,0.6715735793113708
86582,1.128267526626587,-9.107542991638184,0.5231330990791321
86678,4.235941410064697,-8.990227699279785,-0.7649474143981934
86777,,-10.280701637268066,
86778,2.986168146133423,,-0.4369418025016784
86877,-0.3489548861980438,-10.213664054870604,0.2406172752380371
86913,,-9.119514465332031,
86914,3.0795419216156006,,1.3443442583084106
86980,,-8.494627952575684,
86981,5.37558126449585,,1.4520833492279053
87075,0.1298854351043701,-12.562376022338867,1.543063044548035
87114,-1.127070426940918,-9.780313491821287,2.275688648223877
87180,,-11.595118522644045,
87181,0.3357867896556854,,1.483207941055298
87274,1.3772644996643066,-13.036428451538086,-0.1783680319786071
87314,-0.8684966564178467,-7.433996200561523,-0.2525882720947265
87412,-1.1150994300842283,-5.2049946784973145,-0.3794809579849243
87446,2.782660961151123,-4.546588897705078,
87447,,,-3.422511339187622
87514,5.40910005569458,-5.846640586853027,-4.610035419464111
87610,,-12.078747749328612,
87611,1.2910733222961426,,-3.7672762870788574
87646,,-15.885528564453123,
87647,0.2184709012508392,,0.0347159244120121
87714,1.920748353004456,-16.972496032714844,-2.565387010574341
87809,1.470638394355774,-7.347805023193359,5.043385982513428
87846,-0.2962824702262878,-8.652645111083984,0.5422866940498352
87928,-0.375291109085083,-9.852140426635742,0.4153940081596374
88027,2.646191358566284,-9.57201862335205,0.8056488633155823
88126,1.5520412921905518,-9.792284965515137,0.0730231553316116
88178,2.758718967437744,-9.74679470062256,1.5837644338607788
88245,4.654926776885986,-11.489773750305176,0.5758054852485657
88345,,-9.581595420837402,
88346,-1.2348095178604126,,0.8008604645729065
88378,1.7483657598495483,-13.12261962890625,-0.7793126702308655
88445,1.4538789987564087,-12.835315704345703,-0.7649474143981934
88542,0.414795458316803,-9.682151794433594,0.2861070930957794
88641,,-5.578489780426025,
88642,-0.1143231317400932,,-0.7194576263427734
88714,3.3644518852233887,-6.945579051971436,-4.844666957855225
88779,,-15.172056198120115,
88780,5.643732070922852,,-6.027402877807617
88859,,-9.646238327026367,
88861,-0.6147112846374512,,-5.175066947937012
88911,,-9.469067573547363,
88912,-0.7032967209815979,,1.533486247062683
88978,,-8.573636054992676,
88979,1.1354501247406006,-10.228029251098633,2.2373814582824707
89078,1.7363947629928589,-8.884882926940918,0.4441244006156921
89177,1.422754406929016,-8.971074104309082,0.4920084476470947
89247,0.6015431880950928,-9.65342140197754,0.2645592987537384
89312,1.0444705486297607,-9.818621635437012,0.50876784324646
89395,3.6900634765625,-10.24239444732666,2.141613483428955
89445,3.831321239471436,-11.884817123413086,0.0754173547029495
89512,1.8680758476257324,-10.745177268981934,-0.4153940081596374
89545,-0.4926069974899292,-10.453084945678713,1.708262920379639
89578,2.088342428207397,-12.665327072143556,0.3435679376125335
89645,4.40353536605835,-11.36048698425293,-0.8750807046890259
89712,0.5847837924957275,-10.182539939880373,0.456095427274704
89792,-0.1454477459192276,-8.480262756347656,-0.1304839998483657
89845,0.3980360329151153,-5.736507415771484,-1.6675615310668943
89912,1.6525976657867432,-6.387730121612549,-2.9747955799102783
89979,3.766677856445313,-12.75151824951172,-5.759252071380615
90045,1.911171555519104,-10.682928085327148,-4.619612216949463
90130,-1.9626468420028689,-10.778696060180664,1.2892776727676392
90178,1.7938556671142578,-11.348516464233398,2.292448043823242
90245,1.7842788696289062,-9.684545516967772,1.0881646871566772
90327,,-9.720458984375,
90328,0.1514332592487335,-9.263166427612305,0.0418985299766063
90378,,-9.624691009521484,
90379,2.0260932445526123,,0.8942343592643738
90447,1.7363947629928589,-9.765948295593262,1.0809820890426636
90514,1.6430208683013916,-9.327810287475586,0.6021417379379272
90536,,-9.93354320526123,
90537,4.743512153625488,,2.5462334156036377
90580,4.772242546081543,-9.768342971801758,1.2294225692749023
90645,2.69646954536438,-10.520122528076172,-1.0809820890426636
90712,-0.557250440120697,-10.441113471984863,-0.930147349834442
90778,,-12.437877655029297,
90779,-2.166153907775879,,-1.294066071510315
90862,,-12.425907135009766,
90863,1.875258445739746,,-1.3204022645950315
90911,,-8.20732307434082,
90912,-1.1150994300842283,-7.881711959838867,-1.5119383335113523
90978,0.7475894689559937,-7.184999465942383,
90979,1.7603367567062378,,-1.334767460823059
91046,,-6.617573261260986,
91047,1.755548357963562,-6.624756336212158,-2.278082847595215
91112,3.728370666503906,-7.903259754180908,-3.3674447536468506
91179,4.13059663772583,-10.984597206115724,-6.654683589935303
91245,-0.166995570063591,-8.65982723236084,-3.824737310409546
91312,0.1897404789924621,-12.188880920410156,1.1647791862487793
91379,,-8.518569946289062,
91380,2.964620351791382,,1.1791443824768066
91445,1.2934675216674805,-10.333374977111816,4.440047264099121
91512,2.251148223876953,-9.651026725769045,0.0035913025494664
91527,1.391629695892334,-9.131484985351562,
91528,,,1.1504138708114624
91616,,-9.418789863586426,
91617,1.614290475845337,-9.801861763000488,1.521515130996704
91712,0.8409633636474609,-9.47385597229004,0.6308721303939819
91778,,-9.402029991149902,
91779,1.0660183429718018,,0.910993754863739
91845,0.74040687084198,-10.299856185913086,1.9812018871307373
91912,,-11.243170738220217,
91913,3.4338839054107666,,1.315613865852356
91978,,-12.504915237426758,
91979,4.075530052185059,-10.448296546936035,0.4082113802433014
92045,2.0260932445526123,-6.746860504150391,1.238999366760254
92131,,-13.33809757232666,
92132,-0.1334767490625381,-13.45301914215088,0.6524199843406677
92231,0.2136825025081634,-9.84495735168457,-0.0418985299766063
92312,,-7.678205013275146,
92313,-0.2555810213088989,,-0.6428431272506714
92380,1.2384008169174194,-6.830657482147217,-1.1863269805908203
92447,1.470638394355774,-6.754043102264404,-1.844732403755188
92512,2.804208755493164,-10.886435508728027,-4.942829608917236
92579,1.8848352432250977,-7.433996200561523,-4.3610382080078125
92645,-1.1629834175109863,-12.193669319152832,1.3012486696243286
92712,-0.983418345451355,-11.128249168395996,0.4129997789859772
92778,,-11.001357078552246,
92779,0.2424129247665405,,4.8255133628845215
92847,,-9.818621635437012,
92848,3.421912670135498,,1.8758569955825808
92912,1.6525976657867432,-9.260771751403809,1.5406688451766968
92978,2.425924777984619,-9.107542991638184,
92979,1.954267144203186,,0.5925649404525757
93007,,-8.822632789611816,
93008,2.181716203689575,,0.7625532150268555
93047,,-9.555258750915527,
93048,3.2638955116271973,,0.7697358727455139
93114,3.0555999279022217,-9.612719535827637,0.4608838260173797
93181,,-9.586383819580078,
93182,3.4099416732788086,,1.5646108388900757
93248,3.862445831298828,-10.347740173339844,-0.120907187461853
93314,,-9.11233139038086,
93315,-0.0855927094817161,,0.2238578647375106
93381,,-11.32457447052002,
93382,-1.490989089012146,,1.2988544702529907
93448,1.9231425523757932,-12.54801082611084,-0.0442927330732345
93514,,-10.1753568649292,
93515,-0.406415730714798,,-0.2621650993824005
93550,,-7.520187377929687,
93551,-0.2962824702262878,-6.789956092834473,-0.1041477769613266
93581,-0.518943190574646,-6.294356346130371,-0.5638344883918762
93648,0.2974795699119568,-5.710171222686768,-1.3634978532791138
93714,2.275090217590332,-6.643909931182861,-2.539050817489624
93781,6.268618583679199,-13.862427711486816,
93782,,,-6.039373874664307
93848,0.8194155097007751,-7.824251174926758,-2.493561029434204
93915,-1.852513551712036,-13.443442344665527,-0.2142810523509979
93983,2.5025393962860107,-6.72531270980835,1.820790410041809
94048,2.44747257232666,-10.055646896362305,3.554192304611206
94115,0.838569164276123,-9.536105155944824,-0.1352723985910415
94215,1.2336124181747437,-9.430760383605955,0.8607155084609985
94247,0.8289923667907715,-9.548076629638672,0.7386112213134766
94314,1.1665748357772827,-9.74679470062256,0.7481880187988281
94381,2.646191358566284,-10.213664054870604,1.387439846992493
94448,3.728370666503906,-11.168951034545898,-0.0825999602675437
94514,,-9.995792388916016,
94515,3.804985046386719,,-1.8160020112991333
94544,0.0987608209252357,-11.317391395568848,1.7920600175857544
94630,1.4945803880691528,-12.76109504699707,0.9181763529777528
94714,,-9.854534149169922,
94715,-0.1454477459192276,,0.4896142482757568
94781,,-7.299921035766602,
94782,-0.4423287510871887,,-0.7338228225708008
94848,-0.4088099300861358,-5.657498836517334,-1.483207941055298
94914,,-5.966350555419922,
94915,3.8815994262695312,-7.924807548522949,-3.5637693405151367
94981,4.872798919677734,-13.445837020874023,-6.053739070892334
95066,,-9.296685218811035,
95067,-0.557250440120697,-9.950302124023438,-4.7153801918029785
95166,3.536834478378296,-8.609549522399902,0.3435679376125335
95248,2.3110032081604004,-10.515334129333496,2.491166830062866
95314,,-9.50498104095459,
95315,-0.2436100244522094,-9.852140426635742,0.9564836025238036
95381,1.7986440658569336,-9.667786598205566,1.0019733905792236
95382,,,1.3012486696243286
95448,2.4402899742126465,-9.277531623840332,0.1256955862045288
95514,2.0596120357513428,-9.86650562286377,0.7170634269714355
95536,2.543240785598755,-10.034099578857422,1.96683669090271
95581,2.8784289360046387,-10.086771965026855,1.655590534210205
95648,3.7235822677612314,-10.237606048583984,0.2693476974964142
95715,1.834557056427002,-11.104307174682615,-1.260547161102295
95800,-0.8134300112724304,-8.9064302444458,1.2509703636169434
95899,,-11.654973983764648,
95900,2.124255418777466,-10.687716484069824,-0.6619967818260193
95981,,-8.604761123657227,
95982,0.5871779918670654,-7.694964408874512,-0.5805938839912415
96048,,-5.463568210601807,
96115,2.0452468395233154,-5.839457988739014,-2.352303266525269
96181,,-11.137825965881348,
96182,5.77062463760376,,-5.620388507843018
96248,0.536899745464325,-8.983044624328613,-4.212597846984863
96315,-0.1933317929506302,-12.955025672912598,1.1336544752120972
96381,2.1984755992889404,-7.453149795532227,1.1480196714401243
96448,1.614290475845337,-11.204863548278809,2.7688941955566406
96514,,-9.129091262817385,
96515,0.8936358094215393,,1.2629413604736328
96613,,-9.244012832641602,
96614,1.0396820306777954,,0.5805938839912415
96647,1.2743138074874878,-9.454702377319336,1.0666168928146362
96714,,-9.708487510681152,
96715,1.3988122940063477,,0.6572083830833435
96781,,-9.80904483795166,
96782,1.877652645111084,-9.837775230407717,1.8327614068984983
96848,3.022081136703491,-9.725247383117676,1.9333178997039795
96914,,-11.513715744018556,
96915,3.467402696609497,-11.82017421722412,0.0921767652034759
96981,-0.344166487455368,-9.366117477416992,0.6643909811973572
97049,-1.1725603342056274,-11.142614364624023,0.1089361757040023
97149,1.731606364250183,-10.910377502441406,-0.7122750282287598
97180,,-8.030152320861816,
97181,-0.9139865040779114,,-1.315613865852356
97248,-0.921169102191925,-7.213729858398437,-1.3204022645950315
97314,,-6.1267619132995605,
97315,2.337339401245117,,-1.9476830959320068
97381,3.443460702896118,-6.596025466918945,-3.025073766708374
97448,4.2096052169799805,-12.76109504699707,-7.040150165557861
97516,,-9.263166427612305,
97519,-0.1622071713209152,,-1.3682862520217896
97581,-0.7080851793289185,-12.334927558898926,-0.0730231553316116
97648,1.932719349861145,-7.479485988616943,1.6388310194015503
97715,,-10.311826705932615,
97716,3.424306869506836,-8.676587104797363,3.659537315368652
97782,0.5871779918670654,-9.241618156433104,0.1065419763326644
97783,,,0.767341673374176
97849,0.4938040971755981,-9.50737476348877,1.499967336654663
97914,,-9.308655738830566,
97915,1.4514847993850708,,1.047463297843933
97982,1.1857284307479858,-9.849745750427246,0.1687912195920944
98048,2.5097219944000244,-9.981427192687988,2.2661118507385254
98114,,-10.539276123046877,
98115,2.1769278049468994,,0.997184991836548
98131,4.982932090759277,-12.169727325439451,-0.0849941596388816
98219,,-11.39400577545166,
98220,3.345298290252685,,-1.0211269855499268
98319,0.261566549539566,-11.470620155334473,1.042674899101257
98418,0.0389057770371437,-10.000580787658691,0.0131681095808744
98517,,-7.283161640167236,
98518,0.4076128304004669,-6.739677906036377,-1.1743559837341309
98547,,-5.880159378051758,
98548,1.7004817724227903,,-1.844732403755188
98636,2.205658197402954,-5.928043365478516,
98637,,,-2.206256866455078
98730,3.93906044960022,-12.957419395446776,-5.397727966308594
98814,,-12.79222011566162,
98815,-0.2699462473392486,,2.103306293487549
98863,1.561618089675903,-6.385335922241211,1.823184609413147
98955,,-11.865663528442385,
98956,1.4083890914916992,,3.659537315368652
99053,0.3262099921703338,-10.503362655639648,
99054,0.4602852761745453,,-0.5542576909065247
99154,1.2144588232040403,-9.32541561126709,1.1240776777267456
99252,1.7387889623641968,-8.887276649475098,0.5925649404525757
99350,2.524087190628052,-10.000580787658691,0.8248024582862854
99396,2.121861219406128,-10.828974723815918,-2.270900249481201
99467,-1.5053542852401731,-8.281543731689453,0.4728548228740692
99539,,-11.432312965393066,
99540,2.6414029598236084,,1.543063044548035
99597,1.4443022012710571,-10.673351287841797,0.9253589510917664
99687,2.097919225692749,-9.68933391571045,0.5135562419891357
99786,,-6.543353080749512,
99787,-0.8421604633331299,,-0.6835445761680603
99885,1.8680758476257324,-9.169792175292969,-2.553416013717652
99930,5.911882400512695,-7.575253963470459,-2.352303266525269
99996,-0.7990648150444031,-12.677297592163086,
99997,-2.3098061084747314,,2.304419040679932
100083,-1.0648212432861328,-11.18092155456543,-2.096123695373535
100129,,-11.250353813171388,
100130,4.1641154289245605,-9.224859237670898,2.7473464012146
100222,2.5073277950286865,-8.1139497756958,
100223,0.3669114112854004,,0.8750807046890259
100322,1.0899603366851809,-9.313444137573242,0.6476315855979919
100421,-0.0688332989811897,-9.782708168029783,1.387439846992493
100520,3.87202262878418,-10.395624160766602,1.0235211849212646
100619,1.6166846752166748,-12.914323806762695,-0.0442927330732345
100663,1.8249802589416504,-8.75080680847168,2.582146644592285
100730,1.267131209373474,-13.977349281311035,0.8535329103469849
100817,,-10.613495826721191,
100818,-0.4638765752315521,,-0.2406172752380371
100862,0.0772130042314529,-7.319074630737305,-0.6212953329086304
100863,,,-0.6260837316513062
100956,0.2448071241378784,-5.978321552276611,-1.138442873954773
101055,4.92307710647583,-10.067618370056152,-4.140771865844727
101154,,-10.424354553222656,
101155,3.2782607078552246,,-0.8583213090896606
101196,2.270301818847656,-8.429984092712402,2.8191723823547363
101264,2.607884168624878,-10.802638053894045,0.9540894031524658
101353,0.0389057770371437,-8.937555313110352,1.236605167388916
101396,1.6789339780807495,-9.442731857299805,1.1432312726974487
101463,1.3820528984069824,-9.428366661071776,0.6117185354232788
101522,0.4842272996902466,-10.14902114868164,0.4896142482757568
101596,,-10.012551307678224,
101598,2.5959131717681885,,1.313219666481018
101690,3.4338839054107666,-10.891223907470703,0.9564836025238036
101730,-0.801459014415741,-8.592789649963379,0.4872200489044189
101798,1.125873327255249,-9.86889934539795,2.2014684677124023
101888,0.5991489887237549,-13.127408027648926,-1.3443442583084106
101929,1.1881226301193235,-8.710105895996094,-0.3459621369838714
101996,0.4938040971755981,-7.094019412994385,-0.3435679376125335
102086,,-5.671864032745361,
102087,0.5345055460929871,-6.107608318328857,-1.5646108388900757
102129,6.232705593109131,-11.801020622253418,-5.203797340393066
102196,2.741959571838379,-12.641385078430176,-4.380191802978516
102284,,-8.51138687133789,
102285,0.8194155097007751,-5.245696067810059,1.1312602758407593
102329,2.823362350463867,-10.141838073730469,0.8918401598930359
102423,2.093130826950073,-8.832210540771484,0.8631097078323364
102463,0.4459200799465179,-9.569623947143556,0.4177882075309753
102530,0.7811083197593689,-9.07641887664795,0.645237386226654
102553,1.7076643705368042,-10.019734382629396,1.1432312726974487
102641,,-9.943120002746582,
102642,1.6645687818527222,-9.916783332824709,1.234210968017578
102730,2.787449359893799,-10.709263801574709,1.217451572418213
102821,3.455431699752808,-10.685321807861328,1.1336544752120972
102863,0.6709750294685364,-9.074024200439451,0.0754173547029495
102929,,-8.513781547546387,
102930,-0.1502361595630645,-11.592724800109863,1.8782511949539185
102996,1.1857284307479858,-13.548787117004396,-0.5614402890205383
103063,1.3628993034362793,-9.586383819580078,0.4513070285320282
103157,-0.0496796853840351,-7.955932140350342,
103158,-0.2675520479679107,,-0.333991140127182
103196,2.2200236320495605,-7.718906402587891,-3.0346505641937256
103263,3.330933094024658,-8.063671112060547,-2.9316999912261963
103282,2.629431962966919,-12.00452709197998,-4.440047264099121
103348,2.143409013748169,-12.011710166931152,-4.655525207519531
103434,,-8.279149055480957,
103435,-0.7535749673843384,-7.905653953552246,1.3898340463638306
103481,2.095525026321411,-9.14585018157959,0.9804255962371826
103548,1.9590555429458616,-9.397241592407228,0.9780313968658448
103615,0.4387374520301819,-9.370905876159668,0.9229647517204284
103682,1.0708067417144775,-9.476250648498535,0.3172317147254944
103747,,-10.295066833496094,
103748,1.6478092670440674,,0.8367735147476196
103815,2.071583032608032,-10.53688144683838,-0.0634463429450988
103881,2.315791606903076,-9.983820915222168,1.459265947341919
103948,4.075530052185059,-11.329362869262695,0.2669534981250763
104014,,-9.074024200439451,
104015,-0.9355342984199524,,-0.2789244949817657
104081,,-11.192893028259276,
104082,1.4083890914916992,,0.829590916633606
104148,0.9894038438796996,-11.348516464233398,-1.035492181777954
104214,,-9.68933391571045,
104215,1.2168530225753784,-9.600749015808104,-0.5135562419891357
104281,0.1131260320544242,-7.5968017578125,-0.8942343592643738
104348,1.3437457084655762,-6.821080684661865,-1.693897724151611
104415,4.4490251541137695,-10.721235275268556,-3.523067712783813
104481,1.5520412921905518,-10.94150161743164,-3.8343141078948975
104539,0.5416881442070007,-9.102754592895508,2.586935043334961
104614,,-9.114726066589355,
104615,0.9654618501663208,-8.827422142028809,0.9229647517204284
104704,1.83695125579834,-9.813833236694336,0.4177882075309753
104747,0.6374561786651611,-9.378087997436523,0.3722983598709106
104815,1.3437457084655762,-9.502586364746094,0.6045359373092651
104882,1.6621745824813845,-9.627084732055664,0.9085995554924012
104949,1.7076643705368042,-9.897629737854004,0.4034229815006256
105015,2.006939649581909,-10.230423927307127,0.6787561774253845
105081,,-11.702857971191406,
105082,3.3069911003112797,,1.0833762884140017
105148,,-9.32302188873291,
105149,0.1945288926362991,-8.456320762634277,0.0969651713967323
105240,2.287061214447021,-8.942343711853027,2.227804660797119
105338,,-10.915165901184082,
105339,1.2838906049728394,-10.041281700134276,
105340,1.4323312044143677,,0.2717418968677521
105438,0.558447539806366,-8.094796180725098,-0.0754173547029495
105480,,-8.40843677520752,
105481,1.5999252796173096,-9.327810287475586,-2.306813240051269
105529,2.876034736633301,-9.761159896850586,-3.1040825843811035
105615,6.419453144073486,-9.80904483795166,-2.6659436225891118
105616,,,-1.624465823173523
105681,,-11.595118522644045,
105682,1.690904974937439,,0.0945709645748138
105748,-0.8661024570465088,-9.6989107131958,-0.0634463429450988
105815,3.4338839054107666,-9.409213066101074,0.8391677141189575
105881,,-9.313444137573242,
105882,0.7715315222740173,,0.2262520641088485
105973,1.6645687818527222,-9.351752281188965,0.0634463429450988
106014,0.5991489887237549,-9.83538055419922,0.9612720012664796
106081,,-10.527304649353027,
106082,0.4914098978042602,-10.893617630004885,0.6787561774253845
106171,2.569576978683472,-10.498574256896973,
106172,2.050035238265991,,0.750582218170166
106214,2.569576978683472,-11.338939666748049,0.7003039717674255
106281,3.110666513442993,-11.46104335784912,-1.3706804513931274
106348,1.288679122924805,-7.261613845825195,0.8918401598930359
106414,1.8848352432250977,-12.25352382659912,2.864662408828736
106509,1.5400702953338623,-10.864887237548828,0.4967968463897705
106607,,-9.107542991638184,
106608,1.0516531467437744,-8.274360656738281,0.0011971008498221
106707,1.6502034664154053,-7.345410823822021,-2.7976245880126958
106748,6.182427406311035,-9.057265281677246,-1.459265947341919
106815,3.256712913513184,-10.711658477783203,-1.4688427448272705
106905,,-9.445125579833984,
106906,-4.196436882019043,,-1.057040095329285
106948,4.626196384429932,-10.666168212890623,
106950,,,1.162384867668152
107044,1.8680758476257324,-9.114726066589355,0.767341673374176
107143,0.6518214344978333,-10.225635528564451,0.3124433159828186
107242,,-9.651026725769045,
107243,0.1131260320544242,,0.7457938194274902
107342,1.063624143600464,-10.050858497619627,0.9014169573783876
107441,5.3995232582092285,-12.854469299316406,0.5925649404525757
107481,,-8.865729331970215,
107482,1.6837223768234253,,2.251746654510498
107550,1.2000936269760132,-12.617443084716797,1.437718152999878
107639,0.5081692934036255,-11.456254959106444,0.5351040959358215
107681,0.414795458316803,-8.923190116882324,0.7697358727455139
107778,,-7.287950038909912,
107779,-0.9187749028205872,,-0.0059855040162801
107877,2.672527551651001,-7.692570209503174,-3.008314371109009
107976,3.711611270904541,-9.883264541625977,
107977,4.640561580657959,,-3.33392596244812
108075,,-8.403648376464844,
108076,-4.0863037109375,,0.851138710975647
108174,,-8.96149730682373,
108175,2.227206230163574,,0.9684545993804932
108214,-0.0855927094817161,-9.691728591918944,
108215,,,1.0642226934432983
108313,1.3724761009216309,-9.950302124023438,0.1137245818972587
108384,1.9877859354019165,-10.086771965026855,-0.1616086214780807
108405,,-9.86650562286377,
108406,2.830544948577881,,1.5406688451766968
108491,,-10.271124839782717,
108492,2.7108349800109863,-10.074800491333008,1.2533645629882812
108540,2.4426841735839844,-11.456254959106444,-2.586935043334961
108541,,,-0.8655039072036743
108609,-2.604292869567871,-8.310274124145508,1.9716250896453855
108689,,-13.206416130065918,
108690,0.8649053573608398,,0.0634463429450988
108739,,-9.830592155456545,
108740,0.9271546006202698,-9.706093788146973,-0.6667851805686951
108806,,-8.992621421813965,
108807,0.5440823435783386,,0.0490811355412006
108873,-0.7990648150444031,-6.2632317543029785,-0.0347159244120121
108940,2.236783027648926,-6.97430944442749,-3.0585925579071045
109027,6.577470779418945,-12.56955909729004,-5.929240703582764
109126,0.0843956097960472,-5.092466831207275,3.290830135345459
109225,2.583942174911499,-9.435548782348633,1.1312602758407593
109273,,-9.526528358459473,
109274,0.2208651006221771,,0.8032546639442444
109340,0.1370680481195449,-9.153033256530762,0.6548141837120056
109424,1.561618089675903,-9.84495735168457,0.8798691034317017
109473,2.816179752349853,-10.563218116760254,-0.767341673374176
109533,,-10.53688144683838,
109534,2.035670042037964,-10.69489860534668,1.2270283699035645
109607,5.188833713531494,-9.59596061706543,0.5351040959358215
109673,-0.9546879529953004,-10.919954299926758,-1.3419500589370728
109760,0.4195838570594787,-8.650250434875488,1.4664485454559326
109860,-0.1406593471765518,-10.87446403503418,0.0658405497670173
109940,,-7.661445617675781,
109941,-0.4183867573738098,-6.0597243309021,0.1256955862045288
110006,,-5.767632007598877,
110007,1.247977614402771,,-2.1152772903442383
110073,4.925471305847168,-8.987833023071289,-5.378573894500732
110157,1.4514847993850708,-13.026851654052734,-6.558915615081787
110158,,,4.380191802978516
110206,,-9.646238327026367,
110207,-1.7615338563919067,,2.450465440750122
110273,1.0372878313064575,-10.381258964538574,2.1966800689697266
110340,2.143409013748169,-9.56483554840088,1.2270283699035645
110406,,-9.674968719482422,
110407,0.2232593148946762,,1.0977414846420288
110473,,-9.74679470062256,
110474,1.7244237661361694,,0.6931213736534119
110525,1.9446903467178345,-9.454702377319336,0.7026981711387634
110606,,-10.06043529510498,
110607,2.078765630722046,,-0.2621650993824005
110693,3.6565444469451904,-10.12747287750244,1.3419500589370728
110740,1.27191960811615,-11.219228744506836,-1.7872716188430786
110806,,-8.08043098449707,
110807,-2.6138696670532227,-9.004592895507812,1.0235211849212646
110891,2.2463598251342773,-13.582305908203123,1.404199242591858
110940,-0.2148796021938324,-10.381258964538574,-0.4656722247600555
111006,0.0389057770371437,-9.543288230895996,-0.0490811355412006
111073,-0.7224503755569458,-6.811503887176514,-0.1783680319786071
111140,2.3277626037597656,-4.733336925506592,-2.251746654510498
111207,6.127360820770264,-10.424354553222656,-6.3051300048828125
111273,0.1490390598773956,-12.361263275146484,-6.005855083465576
111340,-0.3417722880840301,-8.355764389038086,2.2661118507385254
111427,2.102707624435425,-10.362105369567873,2.3762452602386475
111473,-0.1837549805641174,-8.980650901794434,1.236605167388916
111517,1.0348936319351196,-9.62947940826416,1.3204022645950315
111539,2.057217836380005,-9.361329078674316,1.6915035247802734
111625,,-8.925583839416504,
111626,2.2152352333068848,,1.4449007511138916
111675,,-9.914389610290527,
111676,-0.435146152973175,-9.634267807006836,1.7274165153503418
111741,2.23199462890625,-9.63187313079834,2.2852654457092285
111807,5.030816555023193,-9.124302864074709,1.6675615310668943
111874,1.877652645111084,-12.076353073120115,0.0969651713967323
111962,1.786673069000244,-10.984597206115724,0.6835445761680603
112061,-2.3122003078460693,-12.48815631866455,1.114500880241394
112160,1.228824019432068,-11.77947235107422,-0.0059855040162801
112206,0.6901286244392395,-6.864176273345947,-0.0873883590102195
112273,,-5.212177276611328,
112274,1.6717513799667358,,-0.5494692921638489
112358,,-4.687847137451172,
112359,3.04602313041687,,-5.155913352966309
112407,-0.8708908557891846,-10.644620895385742,-5.455188751220703
112497,0.2663549482822418,-9.21288776397705,-3.228580951690674
112548,-0.0712274983525276,-8.882488250732422,1.2868833541870115
112606,2.6773159503936768,-10.57997703552246,
112607,2.6342203617095947,,3.5446155071258545
112695,,-10.35252857208252,
112696,0.4554968774318695,,0.4225766062736511
112794,1.204882025718689,-9.038111686706545,
112795,,,0.547075092792511
112893,,-9.725247383117676,
112894,1.6980875730514526,-9.979032516479492,-0.5327098965644836
112940,3.639785051345825,-9.509769439697266,1.0881646871566772
113006,5.80414342880249,-11.774683952331545,1.6340426206588743
113073,0.5728127360343933,-11.511322021484377,-3.2094273567199707
113140,1.149815320968628,-11.729193687438965,2.021903276443481
113231,1.5592238903045654,-13.04361057281494,-0.2094926536083221
113330,,-8.729259490966797,
113331,0.4818331003189087,,0.3722983598709106
113429,-0.5237316489219666,-5.355829238891602,-0.9181763529777528
113473,,-9.931148529052734,
113477,5.052364349365234,,-5.227739334106445
113512,,-12.84968090057373,
113513,3.26150131225586,,-3.822343111038208
113539,0.8816647529602051,-11.949460983276367,-4.914099216461182
113627,1.1139023303985596,-13.36203956604004,-1.337161660194397
113711,,-7.393294811248779,
113712,0.517746090888977,,1.4856021404266355
113778,2.8209681510925293,-10.072406768798828,0.997184991836548
113847,0.8146271109580994,-9.368511199951172,-0.0083797061815857
113911,1.6573861837387085,-9.39245319366455,0.2358288615942001
113978,0.8433575630187988,-9.478644371032717,0.6643909811973572
114044,,-10.04846477508545,
114045,1.058835744857788,-10.271124839782717,0.1663970202207565
114111,1.9614497423172,-9.986215591430664,1.1288660764694214
114178,4.671686172485352,-10.90558910369873,0.7936778664588928
114245,,-11.044452667236328,
114246,2.3756465911865234,,-2.191891670227051
114311,,-8.796297073364258,
114312,-0.2244564145803451,,2.0649988651275635
114378,2.342127799987793,-13.91270637512207,-0.8248024582862854
114447,0.352546215057373,-10.450690269470217,0.2454056739807129
114511,0.2328361123800277,-7.553706169128418,-0.0610521435737609
114530,,-5.523423194885254,
114531,-0.7368155717849731,,-0.8224082589149475
114578,-0.70090252161026,-5.262455463409424,-1.478419542312622
114645,1.468244194984436,-6.387730121612549,-2.5462334156036377
114711,4.343680381774902,-14.204798698425291,-4.226963043212891
114778,1.10193133354187,-10.771512985229492,-1.4449007511138916
114844,,-10.836156845092772,
114845,-0.0017956512747332,,1.5933412313461304
114913,2.60548996925354,-8.892065048217773,2.7329812049865723
114982,2.689286947250366,-9.210494041442873,0.606930136680603
115045,0.7811083197593689,-9.62947940826416,0.0347159244120121
115112,,-9.220070838928224,
115113,2.2152352333068848,-9.526528358459473,0.7098808288574219
115194,0.8649053573608398,-9.536105155944824,0.5135562419891357
115244,1.9015947580337524,-10.587160110473633,0.9253589510917664
115312,2.981379747390747,-10.426748275756836,1.4089876413345337
115378,4.621407985687256,-11.927912712097168,0.4680664241313934
115444,,-9.397241592407228,
115445,-0.9355342984199524,-8.01339340209961,0.6572083830833435
115511,0.8050503134727478,-11.595118522644045,2.096123695373535
115578,2.739565372467041,-11.59990692138672,-0.0754173547029495
115645,0.596754789352417,-9.524134635925291,0.1280897855758667
115730,0.702099621295929,-6.320692539215088,0.0107739074155688
115778,0.2855085432529449,-5.578489780426025,-2.029085874557495
115844,,-7.860164165496826,
115845,2.5288755893707275,-11.331756591796877,-4.339490413665772
115927,,-15.5311861038208,
115928,6.807313919067383,,-5.950788497924805
115978,-1.6490063667297363,-13.570335388183594,1.0642226934432983
116044,,-10.836156845092772,
116045,1.0109516382217407,-6.495469093322754,1.0546458959579468
116111,,-8.573636054992676,
116112,-0.7846996188163757,,2.3786394596099854
116178,2.160168409347534,-8.24084186553955,1.1216834783554075
116246,,-9.998186111450195,
116247,-0.5859808921813965,-9.524134635925291,0.2621650993824005
116311,2.3971943855285645,-9.545681953430176,1.0235211849212646
116312,,,1.1480196714401243
116378,0.5895721912384033,-9.830592155456545,0.7026981711387634
116463,1.6047136783599854,-9.495404243469238,0.6189011335372925
116511,4.183269023895264,-9.799467086791992,0.6811503767967224
116554,4.884769916534424,-11.465831756591797,0.4441244006156921
116579,2.1984755992889404,-11.37006378173828,-1.3754688501358032
116661,0.9415197968482972,-9.792284965515137,-0.2789244949817657
116711,1.106719732284546,-13.840880393981934,0.1424549967050552
116778,2.3684639930725098,-12.260706901550291,-0.6093243360519409
116845,-0.1813607811927795,-10.314221382141112,0.1879448294639587
116913,0.3621230125427246,-7.015010833740234,-0.3244143426418304
116998,,-4.924872875213623,
116999,-0.1454477459192276,,-1.116895079612732
117045,5.825691223144531,-12.140996932983398,-5.519832134246826
117111,,-13.057975769042969,
117112,3.1681272983551025,,-4.701014995574951
117196,,-10.93910789489746,
117197,,-11.37006378173828,
117198,1.3581109046936035,,-3.3746273517608643
117245,-1.9913772344589236,-7.220912456512451,1.3706804513931274
117246,,,2.653972625732422
117311,,-9.586383819580078,
117312,1.9662381410598757,-11.796232223510742,4.066551685333252
117378,3.0795419216156006,-9.105149269104004,0.4369418025016784
117445,,-9.751583099365234,
117446,-0.1526303589344024,,0.4345476031303406
117534,2.689286947250366,-9.258378028869627,0.5135562419891357
117633,1.1139023303985596,-9.780313491821287,0.9804255962371826
117733,2.315791606903076,-10.828974723815918,0.8559271097183228
117778,4.350862979888916,-12.277466773986816,-0.1089361757040023
117845,1.1953052282333374,-9.86889934539795,-0.9564836025238036
117930,,-10.342951774597168,
117931,1.1522095203399658,-14.597447395324709,2.89339280128479
117978,1.1905168294906616,-11.504138946533203,0.5279214978218079
118047,1.726817965507507,-11.197681427001951,0.4776432514190674
118111,0.1442506462335586,-7.898471355438232,-0.0993593707680702
118179,0.0556651912629604,-4.572925090789795,-1.3108254671096802
118267,,-6.119579315185547,
118268,1.975814938545227,-7.687781810760498,-2.9676129817962646
118366,,-10.654197692871094,
118367,3.1034839153289795,-10.467450141906738,-4.155137062072754
118466,-0.3633201122283935,-6.672640323638916,-0.1089361757040023
118511,2.366069793701172,-9.062053680419922,0.6979097723960876
118536,1.975814938545227,-10.278307914733888,1.0522516965866089
118578,1.4730325937271118,-10.000580787658691,1.0546458959579468
118643,0.8984242081642151,-9.315838813781738,1.2964602708816528
118708,0.9463081955909728,-9.727641105651855,0.5135562419891357
118803,1.6382324695587158,-9.404424667358398,0.2861070930957794
118902,,-9.366117477416992,
118903,1.0564415454864502,,0.3507505357265472
119001,-0.0137666594237089,-10.201693534851074,1.2557587623596191
119100,5.464166641235352,-12.143390655517578,0.547075092792511
119199,,-8.197746276855469,
119200,-0.4016273319721222,,0.7362170219421387
119242,3.0867245197296143,-12.502521514892578,-0.5973533391952515
119309,2.320580005645752,-10.934319496154783,1.2533645629882812
119398,2.737171173095703,-10.615890502929688,0.9085995554924012
119442,-0.2747346460819244,-7.38132381439209,-0.5039794445037842
119529,-0.3992331326007843,-6.356605529785156,-1.7848774194717407
119616,4.947019100189209,-8.40843677520752,-4.531026840209961
119641,3.0843303203582764,-9.378087997436523,-1.4975731372833252
119735,0.4722562730312347,-11.903970718383787,1.4185645580291748
119834,1.7292121648788452,-7.541735172271728,3.3315317630767822
119933,,-9.105149269104004,
