relative_time,AccX,AccY,AccZ
0,2.3948001861572266,1.1186907291412354,9.956287384033203
58,1.8399440050125122,0.7499836683273315,10.62007999420166
125,2.4660277366638184,1.5939397811889648,9.220669746398926
195,5.213972568511963,-0.17058686912059784,7.0371575355529785
265,,6.300341606140137,
266,2.9891607761383057,,5.98610258102417
335,1.9476830959320068,-2.2230162620544434,9.711481094360352
403,,0.18974047899246216,
404,8.965087890625,,4.019864559173584
473,5.740098476409912,-3.2082302570343018,6.67982292175293
543,5.863399982452393,-5.790975570678711,1.88782799243927
612,8.002618789672852,-2.3469161987304688,2.7479450702667236
682,13.532028198242188,-6.619369029998779,3.489548921585083
751,20.050241470336914,-5.060743808746338,6.912060260772705
821,,-5.892728805541992,
822,15.184625625610352,,3.1681272983551025
892,7.796119213104248,-5.6233811378479,8.117541313171387
952,2.9239187240600586,-3.2082302570343018,-3.051409959793091
969,,-2.557007312774658,
970,-0.03531447425484657,,-1.8375498056411743
990,5.36361026763916,-3.7684733867645264,0.3555389642715454
1009,,-4.620809078216553,
1010,7.329249858856201,,8.093599319458008
1029,,-5.406107425689697,
1030,4.6956281661987305,,5.953182697296143
1049,5.217564105987549,-4.884171485900879,4.258087635040283
1069,5.212775707244873,-4.929661273956299,2.8119897842407227
1091,4.748300552368164,-4.314351558685303,2.426523447036743
1109,4.159327030181885,-4.094084739685059,3.4536359310150146
1129,4.298190593719482,-4.165910720825195,3.178302764892578
1148,5.1146135330200195,-5.738901615142822,2.9508535861968994
1168,7.583035469055176,-4.649539470672607,2.9245173931121826
1188,7.8056960105896,-5.245696067810059,4.487931251525879
1209,9.879075050354004,-4.857835292816162,4.8470611572265625
1228,12.378621101379395,-5.166687488555908,4.413711071014404
1248,12.330737113952637,-6.071695327758789,5.790376663208008
1268,10.350732803344727,-5.295974254608154,8.0145902633667
1288,3.709217071533203,-3.6966474056243896,2.912546396255493
1307,,-4.534617900848389,
1308,1.425148606300354,,0.4489128291606903
1327,1.346139907836914,-4.031835556030273,-0.0347159244120121
1347,3.907935619354248,-4.7836151123046875,2.7545289993286133
1367,3.3261446952819824,-4.987122058868408,2.455253839492798
1387,3.469796895980835,-5.762843608856201,1.3467384576797485
1407,6.2853779792785645,-5.983109951019287,2.670732021331787
1428,9.639654159545898,-6.311115741729736,3.70742130279541
1446,,-7.553706169128418,
1447,11.815983772277832,,4.813542366027832
1466,10.214262962341309,-6.94079065322876,4.667496204376221
1486,10.544662475585938,-7.383718013763428,4.23893404006958
1506,10.262146949768066,-8.372523307800293,3.5470097064971924
1526,,-7.42681360244751,
1528,8.047510147094727,,2.586935043334961
1546,5.7323174476623535,-6.155492782592773,2.9269115924835205
1566,6.819284915924072,-5.762843608856201,3.3458969593048096
1586,6.127360820770264,-5.856217384338379,2.0482394695281982
1605,,-5.947196960449219,
1606,5.9070940017700195,,1.4089876413345337
1627,5.574300289154053,-7.594407558441162,1.5406688451766968
1645,5.315726280212402,-9.066842079162598,1.6819267272949219
1665,,-10.675745010375977,
1666,5.090671539306641,,2.9508535861968994
1685,4.109048843383789,-12.09550666809082,2.9436709880828857
1705,4.8704047203063965,-11.065999984741211,2.031480073928833
1725,,-8.465897560119629,
1726,3.6493618488311768,,-0.13287819921970367
1745,0.17058686912059784,-11.082759857177734,-0.020350715145468712
1765,2.3062148094177246,-11.654973983764648,2.160767078399658
1784,,-5.758055210113525,
1785,7.860762596130371,,4.061763286590576
1804,7.403470039367676,-4.010287761688232,1.8638859987258911
1825,5.7107696533203125,-4.831499099731445,-0.568622887134552
1844,5.061941146850586,-6.157886981964111,0.4728548228740692
1864,5.7754130363464355,-7.316680431365967,1.3323732614517212
1884,5.085883140563965,-6.586448669433594,0.8966285586357117
1903,3.338115692138672,-7.536946773529053,0.7864952683448792
1924,3.5224692821502686,-8.370129585266113,0.7457938194274902
1943,0.9894038438796997,-11.619060516357422,1.1863269805908203
1963,1.8944120407104492,-12.6365966796875,2.2613234519958496
1985,-0.5596446394920349,-15.361198425292969,0.645237386226654
2003,3.0819361209869385,-12.72996997833252,-0.1711854189634323
2023,2.8401217460632324,-7.987056732177734,-1.0522516965866089
2043,2.8568811416625977,-4.970362663269043,-2.1799206733703613
2062,4.183269023895264,-4.316745758056641,-0.7362170219421387
2082,4.736329555511475,-4.314351558685303,0.0035913025494664907
2102,3.314173698425293,-4.106055736541748,0.1975216418504715
2122,1.2120646238327026,-4.1156325340271,1.1887211799621582
2142,-0.444722980260849,-5.568912982940674,2.431311845779419
2162,0.33339259028434753,-6.440402507781982,2.5534160137176514
2181,,-6.75883150100708,
2182,1.3533225059509277,,1.5717934370040894
2201,,-5.406107425689697,
2202,2.0644004344940186,,2.4361002445220947
2221,1.7579425573349,-9.435548782348633,
2222,,,-1.9764134883880615
2241,-2.3481132984161377,-14.087482452392578,3.465606927871704
2261,-4.3424835205078125,-11.578359603881836,3.5278561115264893
2281,-3.4853591918945312,-8.78432559967041,-0.20231004059314728
2301,-0.9546879529953003,-18.069040298461914,1.4329297542572021
2321,0.7164648771286011,-24.566904067993164,1.3251906633377075
2340,,-23.539791107177734,
2341,3.7451300621032715,,1.8303672075271606
2360,2.0021512508392334,-8.611943244934082,1.4544775485992432
2380,1.6621745824813843,-7.266402244567871,
2381,,,0.5973533391952515
2400,2.0452468395233154,-9.859322547912598,1.3706804513931274
2420,-0.406415730714798,-10.407594680786133,1.2342109680175781
2440,-0.47584760189056396,-9.897629737854004,1.7322049140930176
2460,0.761954665184021,-9.318233489990234,1.5167267322540283
2480,1.1139023303985596,-9.583989143371582,1.0881646871566772
2499,,-9.950302124023438,
2500,0.6877344250679016,,1.3611036539077759
2519,-0.04728548228740692,-10.225635528564453,1.657984733581543
2540,-0.5093663930892944,-10.103530883789062,1.8854337930679321
2560,-0.6171054840087891,-10.213664054870605,1.8614917993545532
2579,,-10.615890502929688,
2580,-0.839766263961792,,1.5646108388900757
2599,-0.839766263961792,-10.654197692871094,1.602918028831482
2619,-0.9977835416793823,-10.611102104187012,1.703474521636963
2639,-1.12467622756958,-10.309432983398438,1.3658920526504517
2659,,-9.75397777557373,
2660,-0.9642647504806519,,0.788889467716217
2678,-0.46148237586021423,-9.047688484191895,-0.04668693244457245
2698,0.2472013235092163,-9.241618156433105,-0.41539400815963745
2718,0.4794389009475708,-9.08838939666748,-0.9421183466911316
2738,0.5560533404350281,-9.349357604980469,-1.169567584991455
2759,0.517746090888977,-9.308655738830566,-0.7481880187988281
2778,0.10115502029657364,-9.279925346374512,0.0011971008498221636
2797,-0.5596446394920349,-9.53849983215332,
2798,,,0.4058171808719635
2817,-1.2443863153457642,-9.72285270690918,
2818,,,0.27892449498176575
2837,-1.6178817749023438,-9.648633003234863,-0.02513911761343479
2858,-1.5364789962768555,-9.44991397857666,-0.3315969407558441
2877,,-9.39245319366455,
2878,-1.246780514717102,,-0.6380547285079956
2897,-0.9355342984199524,-9.485827445983887,-0.8367735147476196
2916,,-9.44752025604248,
2917,-0.7583633661270142,,-0.6548141837120056
2936,,-9.193734169006348,
2937,-0.8421604633331299,,-0.45848962664604187
2959,-1.1294646263122559,-8.916007041931152,-0.456095427274704
2976,-1.3305776119232178,-8.990227699279785,-0.6835445761680603
2996,-1.4047977924346924,-9.148244857788086,-0.729034423828125
3016,-1.4742296934127808,-9.081207275390625,-0.44173020124435425
3036,-1.6944962739944458,-8.995016098022461,-0.02753331884741783
3056,-1.9147628545761108,-9.009381294250488,0.061052143573760986
3075,,-9.114726066589355,
3076,-2.1062989234924316,,0.015562310814857483
3095,,-9.138668060302734,
3096,-2.1086931228637695,,-0.18555063009262085
3115,-1.9458874464035034,-9.27034854888916,-0.4129997789859772
3135,-1.6561890840530396,-9.27034854888916,-0.872686505317688
3155,-1.3281834125518799,-8.992621421813965,-1.2629413604736328
3175,-1.2012907266616821,-8.453926086425781,-1.2413935661315918
3195,-1.1318588256835938,-8.29590892791748,-1.5550340414047241
3215,-0.8517372608184814,-8.925583839416504,-1.8830395936965942
3234,-1.3162124156951904,-9.29189682006836,
3235,,,-1.4688427448272705
3254,-2.3050177097320557,-10.608707427978516,-0.9564836025238037
3275,-3.2626984119415283,-12.744335174560547,-1.159990668296814
3294,-3.140594005584717,-14.609418869018555,-1.8519150018692017
3314,-1.323395013809204,-13.52005672454834,-1.780089020729065
3334,,-8.022970199584961,
3335,0.9989806413650513,,0.25737667083740234
3354,1.003769040107727,-5.1116204261779785,1.9979612827301025
3373,,-7.070077419281006,
3374,0.8888474106788635,,1.0115501880645752
3395,2.5959131717681885,-10.436325073242188,-0.10175357013940811
3414,4.453813552856445,-11.274295806884766,0.16400282084941864
3433,4.903923511505127,-10.766724586486816,1.499967336654663
3453,4.17608642578125,-10.012551307678223,2.0482394695281982
3473,3.0364463329315186,-9.730035781860352,1.136048674583435
3493,2.294243812561035,-9.959878921508789,0.6596025824546814
3513,2.1960813999176025,-9.758766174316406,0.3579331636428833
3532,,-9.136273384094238,
3533,2.3756465911865234,,0.27892449498176575
3552,,-8.698134422302246,
3553,2.5456349849700928,,0.4273650050163269
3572,2.6126725673675537,-8.530540466308594,0.6141127347946167
3592,2.672527551651001,-8.62630844116211,
3593,,,0.7122750282287598
3612,2.588730573654175,-8.736441612243652,0.7625532150268555
3632,2.227206230163574,-8.832210540771484,1.0235211849212646
3653,1.7483657598495483,-9.062053680419922,1.1264718770980835
3671,,-9.255983352661133,
3672,1.6956933736801147,,0.889445960521698
3691,1.6813281774520874,-9.133879661560059,0.5231330990791321
3711,1.568800687789917,-9.062053680419922,0.788889467716217
3731,1.8608932495117188,-9.349357604980469,0.7050924301147461
3751,2.4187421798706055,-9.761159896850586,
3752,,,-0.20709845423698425
3771,2.9502551555633545,-9.727641105651855,-0.9780313968658447
3791,3.493738889694214,-9.75397777557373,-0.34356793761253357
3810,,-10.319009780883789,
3811,4.276642799377441,,0.1759738177061081
3830,4.918288707733154,-11.068394660949707,-0.09935937076807022
3850,,-11.286267280578613,
3851,5.433042049407959,,-0.7362170219421387
3870,,-11.884817123413086,
3871,6.048352241516113,,-0.7026981711387634
3890,5.248688697814941,-12.85207462310791,-0.5111620426177979
3910,1.568800687789917,-13.493721008300781,-0.8415619134902954
3930,-1.2084733247756958,-11.389217376708984,-1.3994108438491821
3950,-0.5979518890380859,-9.488221168518066,0.9564836025238037
3970,0.4602852761745453,-9.890447616577148,
3989,1.690904974937439,-12.861651420593262,3.250128746032715
4009,0.9415197968482971,-15.385140419006348,3.0322563648223877
4029,,-15.167267799377441,
4031,0.9654618501663208,,2.560598611831665
4049,,-14.927847862243652,
4050,0.7667431235313416,,0.1472434103488922
4069,0.6997054219245911,-12.876016616821289,-0.3124433159828186
4089,1.025316834449768,-10.589553833007812,1.413776159286499
4109,1.425148606300354,-8.738836288452148,0.8535329103469849
4130,1.6717513799667358,-6.186617374420166,
4131,,,-1.4520833492279053
4148,,-5.868188381195068,
4149,1.6525976657867432,,-1.6938977241516113
4168,1.5328876972198486,-5.130774021148682,-1.095347285270691
4188,1.3317747116088867,-3.9480385780334473,-0.8870517015457153
4208,0.8313865661621094,-3.3518824577331543,-0.9277531504631042
4231,0.3381809890270233,-3.5434184074401855,-1.3874398469924927
4248,0.005386953707784414,-3.885789394378662,-2.1966800689697266
4268,-0.06643909960985184,-4.242525577545166,-2.912546396255493
4287,0.08439560979604721,-5.872976779937744,
4288,,,-3.86543869972229
4307,0.32381579279899597,-9.493009567260742,-6.508637428283691
4329,1.1522095203399658,-14.135366439819336,-9.922768592834473
4347,1.0899603366851807,-16.187198638916016,-9.906009674072266
4366,,-12.72996997833252,
4367,-2.0272903442382812,,-7.856573104858398
4387,-2.4582467079162598,-7.422025203704834,-3.2166099548339844
4408,-2.518101692199707,-7.060500621795654,-1.6292542219161987
4458,-1.105522632598877,-11.413159370422363,-1.2030863761901855
4485,4.123414039611816,-13.354857444763184,3.8103721141815186
4527,,-11.379640579223633,
4528,4.812943935394287,-9.32541561126709,4.624400615692139
4593,1.832162857055664,-8.813055992126465,-0.4752490520477295
4660,,-9.962273597717285,
4661,1.63344407081604,,-0.48482584953308105
4726,,-7.726089000701904,
4727,-0.018555063754320145,,-0.06584054976701736
4792,1.5400702953338623,-7.378929615020752,1.6675615310668945
4860,1.3988122940063477,-8.702922821044922,-1.8950105905532837
4870,5.28460168838501,-10.769119262695312,0.2621650993824005
4926,6.215946197509766,-11.731588363647461,-0.5159504413604736
4985,,-13.225569725036621,
4986,7.094618320465088,-13.15853214263916,1.2773065567016602
5063,,-11.604695320129395,
5064,-0.04010287672281265,-10.56800651550293,-0.8535329103469849
5126,1.7603367567062378,-15.758635520935059,3.377021551132202
5191,,-10.781089782714844,
5192,3.093907117843628,-6.813898086547852,0.9660604000091553
5258,1.2982559204101562,-6.088454723358154,-0.424970805644989
5326,-0.1909375786781311,-3.8738183975219727,-0.16400282084941864
5392,0.3357867896556854,-6.588842868804932,-5.282805919647217
5458,-0.5835866928100586,-13.852850914001465,-8.730456352233887
5488,,-11.274295806884766,
5489,-0.2172738015651703,,-1.1073182821273804
5524,,-15.535974502563477,
5525,3.1633388996124268,,5.8837504386901855
5620,2.5097219944000244,-8.829815864562988,1.7130513191223145
5719,,-9.832986831665039,
5720,2.02848744392395,,-0.28131869435310364
5792,,-6.696582317352295,
5793,-0.04249707981944084,,0.0802057534456253
5858,,-9.215282440185547,
5859,1.6861165761947632,,1.4688427448272705
5925,4.216787815093994,-11.226411819458008,0.46088382601737976
5985,,-10.656591415405273,
5986,6.180033206939697,,-1.5550340414047241
6058,4.264671802520752,-13.385981559753418,-0.0586579404771328
6125,0.9702502489089966,-12.39957046508789,2.9724013805389404
6192,2.1122844219207764,-15.440206527709961,1.945288896560669
6258,2.0620062351226807,-8.456320762634277,
6259,2.0859482288360596,,0.6308721303939819
6327,1.2096704244613647,-5.6191911697387695,0.6428431272506714
6393,,-2.2409727573394775,
6394,-1.7974469661712646,,-0.889445960521698
6459,1.2336124181747437,-8.911218643188477,-3.6140475273132324
6460,,,-7.844601631164551
6485,,-7.857769966125488,
6486,0.5895721912384033,,-4.957194805145264
6526,-1.146224021911621,-8.281543731689453,-6.625953197479248
6527,,,-2.1727380752563477
6592,,-15.559916496276855,
6593,1.0181342363357544,,4.552574634552002
6594,,,0.6596025824546814
6658,,-8.702922821044922,
6659,4.4059295654296875,-8.135497093200684,0.6236895322799683
6725,2.720411777496338,-11.23598861694336,1.071405291557312
6792,,-8.611943244934082,
6793,1.3006501197814941,,-0.1280897855758667
6858,,-9.078812599182129,
6859,1.2527660131454468,,0.8822633028030396
6926,1.592742681503296,-8.664615631103516,-0.20470423996448517
6988,2.4426841735839844,-8.932766914367676,0.03950432687997818
7058,,-9.445125579833984,
7059,3.352480888366699,,1.1456254720687866
7125,,-11.135432243347168,
7126,1.0085574388504028,-12.97657299041748,-0.1735796183347702
7192,-2.5779566764831543,-14.008474349975586,1.9955670833587646
7258,,-13.563152313232422,
7259,0.9894038438796997,,0.4752490520477295
7325,0.2472013235092163,-8.927978515625,0.36990416049957275
7391,,-5.169081687927246,
7392,1.391629695892334,,-0.8990227580070496
7458,0.25438392162323,-5.224148273468018,-3.95641827583313
7486,-0.07841010391712189,-9.509769439697266,-7.42561674118042
7518,,-11.137825965881348,
7519,-0.8062474131584167,-9.514557838439941,-9.008183479309082
7592,-4.016871929168701,-6.560112476348877,-5.033809185028076
7686,4.657320976257324,-15.954959869384766,1.1288660764694214
7725,6.843226909637451,-11.288661003112793,4.124012470245361
7792,5.643732070922852,-11.051634788513184,2.934094190597534
7858,0.862511157989502,-9.224859237670898,0.4967968463897705
7925,2.7108349800109863,-8.827422142028809,1.191115379333496
7986,3.1250317096710205,-9.248801231384277,-0.5973533391952515
8059,1.6047136783599854,-9.378087997436523,-2.1799206733703613
8126,,-11.264719009399414,
8127,5.562329292297363,,-0.4297592043876648
8222,,-12.828132629394531,
8223,1.0085574388504028,,-0.5015852451324463
8322,1.5352818965911865,-14.537592887878418,1.8471266031265259
8421,1.8058266639709473,-6.9455790519714355,-0.13048399984836578
8458,,-3.6798880100250244,
8460,-0.31543606519699097,,-0.767341673374176
8485,-1.0648212432861328,-3.4308910369873047,-1.3060370683670044
8525,-0.19812019169330597,-4.20421838760376,-3.180696964263916
8551,1.9422961473464966,-11.544840812683105,-6.245275020599365
8640,2.6581623554229736,-16.268600463867188,-9.850942611694336
8726,,-13.06515884399414,
8727,3.4338839054107666,,2.4361002445220947
8792,4.700416564941406,-8.248024940490723,2.120065689086914
8858,3.067570924758911,-9.612719535827637,-0.1999158412218094
8957,,-9.255983352661133,
8958,0.42437225580215454,,0.18315643072128296
8985,,-8.480262756347656,
8986,1.9877859354019165,,1.0570400953292847
9058,,-8.427590370178223,
9059,1.7076643705368042,-9.466673851013184,0.6548141837120056
9156,2.5576059818267822,-9.05247688293457,0.2932897210121155
9191,5.344456672668457,-14.645331382751465,0.3196259140968323
9258,1.6382324695587158,-13.160926818847656,-1.159990668296814
9326,0.4842272996902466,-13.795390129089355,2.45285964012146
9392,1.5951368808746338,-14.089877128601074,-0.18076223134994507
9435,1.4730325937271118,-5.6455278396606445,-0.4465186297893524
9452,,-4.656722068786621,
9453,1.245583415031433,,-0.09935937076807022
9472,,-3.6750996112823486,
9473,0.5440823435783386,,-0.05386953800916672
9492,-0.08559270948171616,-3.0550012588500977,-0.36990416049957275
9513,-0.861314058303833,-2.8634653091430664,
9514,,,-0.9636662006378174
9532,-1.0456676483154297,-2.920926094055176,-2.0242974758148193
9552,-0.25079262256622314,-4.230554580688477,-3.4751837253570557
9572,1.5328876972198486,-7.979874134063721,-5.632359504699707
9592,2.8137855529785156,-13.309367179870605,-7.681796073913574
9612,0.9678560495376587,-17.290924072265625,-11.03128433227539
9631,-1.6011223793029785,-13.390769958496094,-10.107122421264648
9651,-1.1893197298049927,-10.211270332336426,-4.440047264099121
9671,-1.7974469661712646,-11.252747535705566,-2.8790276050567627
9691,-0.15263035893440247,-13.543998718261719,-2.3977930545806885
9712,3.024475336074829,-12.662932395935059,2.6563668251037598
9731,3.977367639541626,-9.138668060302734,4.545392036437988
9750,,-8.061277389526367,
9751,2.275090217590332,,3.8774096965789795
9770,0.7499836683273315,-8.482656478881836,2.050633668899536
9790,3.6900634765625,-9.627084732055664,1.2844891548156738
9812,6.297348976135254,-10.931924819946289,2.9939491748809814
9830,4.925471305847168,-10.369287490844727,1.6938977241516113
9850,2.497750997543335,-9.430760383605957,-0.22864626348018646
9870,1.1905168294906616,-8.875306129455566,-0.9301473498344421
9890,0.5776011347770691,-8.846575736999512,-0.4967968463897705
9910,0.03172317147254944,-9.083600997924805,-0.1280897855758667
9929,0.4554968774318695,-8.786720275878906,0.50876784324646
9949,0.9702502489089966,-8.08282470703125,0.6165069341659546
9969,1.2312182188034058,-7.802703380584717,0.5111620426177979
9989,1.4969745874404907,-8.236053466796875,0.5398924946784973
10010,2.095525026321411,-9.165003776550293,0.7697358727455139
10029,2.100313425064087,-9.390059471130371,0.5207388401031494
10049,1.4155718088150024,-9.188945770263672,-0.3124433159828186
10068,1.446696400642395,-9.485827445983887,-1.4065934419631958
10088,2.3564929962158203,-9.425971984863281,-1.1959037780761719
10108,3.7475242614746094,-9.658209800720215,0.4297592043876648
10128,5.0284223556518555,-10.287884712219238,0.4034229815006256
10148,5.938218593597412,-10.256759643554688,0.10175357013940811
10168,5.933430194854736,-10.6925048828125,-0.7218518257141113
10188,5.354033470153809,-11.190498352050781,-1.4544775485992432
10208,5.270236492156982,-12.461819648742676,-0.28371289372444153
10227,3.7068228721618652,-13.529633522033691,0.5494692921638489
10247,0.40043023228645325,-12.11705493927002,-0.23104046285152435
10267,-2.1565771102905273,-10.991780281066895,0.32202014327049255
10287,-2.961029052734375,-11.166556358337402,1.8136078119277954
10308,-2.5492262840270996,-12.196063041687012,2.7473464012145996
10327,-2.3936030864715576,-14.444218635559082,2.251746654510498
10347,-2.4654293060302734,-16.70913314819336,1.8638859987258911
10366,-0.619499683380127,-16.294937133789062,1.3706804513931274
10386,1.688510775566101,-12.983756065368652,
10387,,,0.2717418968677521
10406,2.097919225692749,-10.618284225463867,0.8798691034317017
10426,1.3844470977783203,-8.937555313110352,1.1480196714401245
10446,0.42437225580215454,-7.438784599304199,0.7362170219421387
10466,0.44352585077285767,-6.081272125244141,-0.4345476031303406
10488,,-5.142745018005371,
10489,0.9678560495376587,,-0.9469067454338074
10505,,-4.575319290161133,
10506,1.1186907291412354,,-0.6117185354232788
10525,1.0708067417144775,-3.8738183975219727,-0.7601590156555176
10545,0.6542156338691711,-3.361459255218506,-1.3515268564224243
10565,0.23044191300868988,-3.5242648124694824,-1.9812018871307373
10585,0.41958385705947876,-4.197035789489746,-3.3506853580474854
10605,1.0947487354278564,-5.92325496673584,-4.827907562255859
10624,,-9.495404243469238,
10625,1.5161281824111938,,-6.123170852661133
10645,1.8896236419677734,-13.998897552490234,
10664,,-15.162479400634766,
10665,0.9247604012489319,,-11.462240219116211
10684,,-11.896788597106934,
10685,-1.7591396570205688,,-8.96269416809082
10705,-4.220378875732422,-10.342951774597168,-2.6372132301330566
10724,-4.196436882019043,-10.536881446838379,-1.416170358657837
10744,0.5201402902603149,-12.11705493927002,-2.448071241378784
10764,3.824138641357422,-12.006921768188477,0.29568392038345337
10784,,-9.579200744628906,
10786,4.324526786804199,,3.4344823360443115
10803,,-8.987833023071289,
10804,3.1848866939544678,,4.657919406890869
10823,1.7699135541915894,-9.153033256530762,3.693056106567383
10843,2.672527551651001,-9.567230224609375,1.6196774244308472
10863,4.429871559143066,-10.321403503417969,2.3020248413085938
10885,4.104260444641113,-9.938331604003906,2.5294740200042725
10903,2.3133974075317383,-9.445125579833984,0.8487445116043091
10923,1.3102269172668457,-9.244012832641602,-0.20949265360832214
10942,1.3102269172668457,-8.841787338256836,-0.020350715145468712
10962,1.104325532913208,-9.129091262817383,0.5183446407318115
10984,,-8.868123054504395,
10985,0.9463081955909729,,0.9445125460624695
11002,1.245583415031433,-8.339004516601562,
11003,,,1.0187327861785889
11022,1.813009262084961,-8.008605003356934,1.013944387435913
11042,2.536058187484741,-8.178592681884766,0.6332663297653198
11062,3.1657330989837646,-8.772355079650879,0.973242998123169
11082,,-9.05487060546875,
11083,2.406771183013916,,0.48961424827575684
11101,1.4155718088150024,-9.32541561126709,-0.6236895322799683
11122,1.2838906049728394,-9.6989107131958,-1.9045875072479248
11141,2.5791537761688232,-8.901641845703125,-1.4281413555145264
11161,4.657320976257324,-9.260771751403809,0.7960720658302307
11182,,-11.190498352050781,
11183,5.859210014343262,,0.5805938839912415
11201,5.4426188468933105,-12.131420135498047,-0.07062894850969315
11221,3.620631456375122,-11.4849853515625,-0.4728548228740692
11240,,-12.22000503540039,
11241,3.2830491065979004,,-0.4944026470184326
11260,4.79857873916626,-13.211204528808594,0.8008604645729065
11282,3.9151182174682617,-13.141773223876953,0.23104046285152435
11300,0.6326677799224854,-11.616666793823242,-0.8607155084609985
11320,,-9.500192642211914,
11321,-1.6801310777664185,,-0.10893617570400238
11340,-1.4790180921554565,-9.59596061706543,1.0522516965866089
11360,0.1562216579914093,-11.688492774963379,2.031480073928833
11381,0.292691171169281,-13.424288749694824,2.4432828426361084
11399,-0.4902127981185913,-15.310919761657715,2.5749640464782715
11419,-0.6338648796081543,-15.397110939025879,1.6412252187728882
11439,0.8720879554748535,-13.503297805786133,0.2190694510936737
11459,1.8632874488830566,-11.475408554077148,0.45848962664604187
11479,2.145803213119507,-9.75637149810791,1.217451572418213
11499,1.7483657598495483,-8.04691219329834,0.5662286877632141
11519,1.6573861837387085,-6.744466304779053,-0.46567222476005554
11538,,-5.604825973510742,
11539,1.5352818965911865,,-0.7721300721168518
11558,,-4.663905143737793,
11559,0.9750386476516724,,-0.4034229815006256
11578,,-3.8522706031799316,
11579,0.2663549482822418,,-0.32202014327049255
11598,0.10594342648983002,-3.375824451446533,-0.6619967818260193
11618,-0.4255693554878235,-3.3016040325164795,-1.4927847385406494
11638,-0.34656068682670593,-3.4811692237854004,-2.8167781829833984
11658,0.49619829654693604,-4.841075897216797,-3.9612066745758057
11678,1.2216414213180542,-8.226476669311523,-5.558139324188232
11697,,-13.309367179870605,
11698,1.2910733222961426,,-7.930793285369873
11717,0.6733692288398743,-16.76420021057129,
11718,,,-10.052056312561035
11737,,-13.306973457336426,
11738,-0.9283517003059387,,-8.775946617126465
11757,-0.8972271084785461,-9.461885452270508,-3.513490915298462
11777,-1.787870168685913,-8.006210327148438,
11778,,,-3.1735143661499023
11797,-0.05925649031996727,-9.713275909423828,-1.7154455184936523
11817,1.3102269172668457,-12.950237274169922,1.6699557304382324
11836,3.0795419216156006,-12.591106414794922,3.8750154972076416
11856,4.4059295654296875,-10.951078414916992,3.3219549655914307
11876,,-8.9064302444458,
11877,3.048417329788208,,2.517503023147583
11896,2.4378957748413086,-8.283937454223633,1.1504138708114624
11916,3.405153274536133,-9.75397777557373,2.24935245513916
11936,3.472191095352173,-10.36449909210205,2.4863784313201904
11956,2.454655408859253,-10.491392135620117,0.8966285586357117
11976,1.6597803831100464,-10.08437728881836,0.0347159244120121
11995,1.2767080068588257,-9.351752281188965,
11996,,,-0.10175357013940811
12015,0.4411316514015198,-8.89685344696045,0.017956512048840523
12035,0.15143325924873352,-8.343792915344238,0.39145198464393616
12055,,-7.654263019561768,
12057,0.6111199855804443,,0.5973533391952515
12075,1.0420763492584229,-7.522581577301025,0.7984662652015686
12095,1.4730325937271118,-7.939172744750977,1.1480196714401245
12115,1.4969745874404907,-9.095572471618652,0.8631097078323364
12134,,-9.57441234588623,
12135,1.8082208633422852,,0.25977087020874023
12154,1.710058569908142,-9.126696586608887,-0.9445125460624695
12175,2.279878616333008,-9.279925346374512,-2.1703438758850098
12194,3.493738889694214,-9.174580574035645,-1.4879963397979736
12214,4.456207752227783,-9.806650161743164,0.5351040959358215
12234,4.820126533508301,-11.535264015197754,-0.0586579404771328
12258,4.324526786804199,-11.386823654174805,-0.1759738177061081
12274,4.063559055328369,-11.638214111328125,-0.3172317147254944
12293,,-12.428300857543945,
12294,4.472967147827148,,-0.365115761756897
12313,,-13.146561622619629,
12314,4.379593372344971,,0.7936778664588928
12333,1.5616180896759033,-12.562376022338867,0.10175357013940811
12354,-2.029684543609619,-11.200075149536133,-0.9277531504631042
12373,,-11.176133155822754,
12374,-1.7998411655426025,,0.9971849918365479
12393,0.42197805643081665,-12.540828704833984,2.721010208129883
12412,0.4411316514015198,-13.558363914489746,2.292448043823242
12432,,-14.865598678588867,
12433,-0.22206220030784607,,1.4257471561431885
12454,-0.3824737071990967,-15.631742477416992,1.4257471561431885
12472,1.0540473461151123,-13.814543724060059,0.5231330990791321
12492,1.777096152305603,-11.006145477294922,0.36990416049957275
12512,2.1362264156341553,-9.818621635437012,1.049857497215271
12532,1.6741455793380737,-8.678980827331543,1.0115501880645752
12553,1.1354501247406006,-7.268796443939209,0.09457096457481384
12572,1.025316834449768,-5.975927352905273,-0.23822307586669922
12591,0.40521863102912903,-4.920084476470947,
12592,,,0.14006079733371735
12611,-0.12868833541870117,-4.170699596405029,0.38905778527259827
12631,-0.6937199234962463,-3.711012601852417,-0.3603273630142212
12652,-1.1174936294555664,-3.406949043273926,-1.2677297592163086
12671,-1.3664906024932861,-3.624821424484253,-2.4193408489227295
12691,-0.71766197681427,-4.474762916564941,-3.4727895259857178
12711,-0.008978256024420261,-6.514622688293457,-4.753687381744385
12730,,-9.165003776550293,
12731,0.7954735159873962,,-5.503072738647461
12750,,-12.394782066345215,
12751,0.9941922426223755,,-7.574057102203369
12770,-0.7224503755569458,-14.542381286621094,-8.098387718200684
12790,-2.3912088871002197,-13.15613842010498,-5.907692909240723
12810,-1.9003976583480835,-10.105925559997559,-4.2509050369262695
12830,-2.477400302886963,-9.555258750915527,-5.725733280181885
12851,0.3884592354297638,-11.640608787536621,-5.33547830581665
12870,3.04602313041687,-12.983756065368652,1.3539210557937622
12891,2.981379747390747,-10.72841739654541,6.716932773590088
12986,1.104325532913208,-10.752359390258789,4.686649799346924
13006,5.191227912902832,-10.251971244812012,3.0131027698516846
13074,3.6302082538604736,-10.663774490356445,2.1559786796569824
13169,-0.7104793787002563,-8.576030731201172,-0.5015852451324463
13269,,-9.440337181091309,
13270,1.4945803880691528,,0.9804255962371826
13368,3.9151182174682617,-9.0859956741333,-0.8559271097183228
13467,2.583942174911499,-11.784260749816895,-0.5901707410812378
13518,1.3988122940063477,-12.287043571472168,1.358709454536438
13540,1.8225860595703125,-15.272612571716309,3.046621561050415
13607,1.913565754890442,-16.46013641357422,1.459265947341919
13706,3.4865562915802,-10.249577522277832,0.46327802538871765
13739,,-4.220977783203125,
13740,0.060453593730926514,,0.7026981711387634
13809,-0.27473464608192444,-4.01268196105957,0.2621650993824005
13904,1.0396820306777954,-6.914454460144043,-3.7002387046813965
13985,,-9.653421401977539,
13986,1.5233107805252075,,-4.593276023864746
14006,,-11.396400451660156,
14007,1.1857284307479858,-6.998251438140869,3.913322687149048
14074,0.30945056676864624,-6.878541469573975,2.232593059539795
14141,3.7187938690185547,-12.066776275634766,0.3148375153541565
14207,0.5009866952896118,-9.045293807983398,0.08738835901021957
14273,,-8.937555313110352,
14274,0.9654618501663208,-8.382100105285645,-0.13527239859104156
14340,0.558447539806366,-8.951920509338379,0.6380547285079956
14421,1.954267144203186,-9.14585018157959,-0.3794809579849243
14473,3.883993625640869,-10.556035041809082,
14474,5.626972675323486,,0.7457938194274902
14486,7.094618320465088,-12.248735427856445,-1.215057373046875
14540,8.588600158691406,-12.552799224853516,-0.6548141837120056
14607,-1.1150994300842285,-10.572794914245605,-0.6811503767967224
14674,3.512892484664917,-11.791443824768066,2.5677812099456787
14740,1.2958617210388184,-13.93664836883545,
14741,0.5392939448356628,,1.2868833541870117
14807,0.8170213103294373,-9.763554573059082,0.9469067454338074
14874,-1.1079168319702148,-6.722918510437012,0.4129997789859772
14940,,-5.628767967224121,
14941,-1.0767922401428223,-6.813898086547852,-1.2653355598449707
14986,-2.9490580558776855,-9.77791976928711,-3.8295257091522217
15074,-2.273893117904663,-9.919178009033203,-2.9867665767669678
15156,,-13.886369705200195,
15157,-3.1693243980407715,,-4.413711071014404
15255,1.8728642463684082,-12.461819648742676,-0.8152256608009338
15340,,-9.916783332824707,
15341,1.058835744857788,,-0.07302315533161163
15407,2.473809003829956,-8.281543731689453,0.4058171808719635
15474,1.6765397787094116,-8.96149730682373,-0.20470423996448517
15540,0.49140989780426025,-10.192116737365723,-0.4345476031303406
15608,4.800972938537598,-10.465055465698242,-0.04429273307323456
15675,2.935889720916748,-12.538434028625488,-1.7824832201004028
15741,0.7068880796432495,-9.883264541625977,
15742,-0.12629413604736328,,-0.25977087020874023
15807,1.7579425573349,-11.525687217712402,3.7265748977661133
15874,4.0300397872924805,-12.938265800476074,0.02513911761343479
15940,,-8.307879447937012,
15941,1.7244237661361694,-7.438784599304199,0.30526071786880493
15985,,-5.317522048950195,
15986,0.12988543510437012,-4.795586109161377,0.5566518902778625
16006,,-4.630385875701904,
16007,-1.3281834125518799,,-0.9301473498344421
16073,,-4.857835292816162,
16074,-0.9953893423080444,-6.315904140472412,-1.7322049140930176
16140,1.346139907836914,-12.322956085205078,-7.983465671539307
16141,,,-5.574898719787598
16207,,-8.62391471862793,
16208,1.0324994325637817,,-4.15992546081543
16274,,-11.97100830078125,
16340,,-9.801861763000488,
16341,5.073912143707275,,2.4408886432647705
16408,1.324592113494873,-11.559206008911133,-0.4034229815006256
16485,,-9.062053680419922,
16486,1.0947487354278564,-8.508993148803711,-0.20231004059314728
16538,0.7092822790145874,-8.451532363891602,0.8990227580070496
16607,-0.17178396880626678,-8.722076416015625,-1.193509578704834
16674,1.9207483530044556,-9.84256362915039,-0.4776432514190674
16740,,-10.314221382141113,
16741,5.547964096069336,,-0.44412440061569214
16807,4.5639472007751465,-13.340492248535156,-0.30047231912612915
16874,0.23283611238002777,-10.673351287841797,2.388216257095337
16940,5.856815814971924,-14.79377269744873,0.9229647517204285
16985,2.5983073711395264,-11.250353813171387,-0.02513911761343479
17064,0.8146271109580994,-8.406042098999023,-0.1999158412218094
17140,-1.0001777410507202,-4.6950297355651855,-0.4034229815006256
17207,0.5728127360343933,-5.87776517868042,-3.973177671432495
17273,0.8409633636474609,-11.779472351074219,-5.92205810546875
17341,-1.1749545335769653,-13.239935874938965,-1.40180504322052
17409,4.2527008056640625,-11.51850414276123,2.7521347999572754
17476,3.824138641357422,-10.800244331359863,-0.05386953800916672
17485,0.9846154451370239,-9.677363395690918,-1.624465823173523
17530,,-8.7268648147583,
17531,0.26156654953956604,-8.44195556640625,-1.6077064275741577
17607,-0.43754035234451294,-8.676587104797363,-1.1863269805908203
17674,1.9925743341445923,-8.853757858276367,-1.1528080701828003
17740,,-9.409213066101074,
17741,1.2407950162887573,,-0.8056488633155823
17807,,-9.390059471130371,
17808,2.3325510025024414,,-0.29568392038345337
17897,,-10.522516250610352,
17898,4.865616321563721,-11.243170738220215,0.5279214978218079
17920,,-10.457873344421387,
17921,1.4227544069290161,,-1.4472949504852295
17936,1.5735890865325928,-8.913613319396973,-0.1041477769613266
17955,,-9.222464561462402,
17956,2.1481974124908447,,1.7585411071777344
17975,3.714005470275879,-11.499350547790527,3.642777919769287
17995,4.872798919677734,-13.139378547668457,4.401739597320557
18015,4.719570159912109,-13.84566879272461,1.744175910949707
18036,3.383605480194092,-13.625401496887207,-0.365115761756897
18056,1.877652645111084,-13.508086204528809,-0.23343466222286224
18074,,-12.270283699035645,
18075,1.9087773561477661,,0.8439561128616333
18095,1.7411831617355347,-10.486603736877441,0.6117185354232788
18114,1.8800468444824219,-9.385271072387695,0.5111620426177979
18134,,-8.78432559967041,
18135,1.71245276927948,,0.10654197633266449
18154,1.2791022062301636,-8.061277389526367,0.1041477769613266
18174,0.6254851818084717,-6.751648902893066,0.03950432687997818
18194,0.28790274262428284,-5.580883979797363,-0.0802057534456253
18214,0.07481880486011505,-5.04218864440918,-0.1472434103488922
18234,,-5.07570743560791,
18235,-0.5859808921813965,,-0.7003039717674255
18253,,-5.193023681640625,
18254,-0.9355342984199524,,-1.7920600175857544
18273,-0.7775170207023621,-5.327098846435547,-2.6850972175598145
18293,-0.406415730714798,-6.279991149902344,-3.8103721141815186
18313,0.2519897222518921,-8.039729118347168,-5.493495941162109
18333,1.9183541536331177,-10.24239444732666,-7.643488883972168
18353,1.6980875730514526,-10.757147789001465,-8.742427825927734
18373,1.5496470928192139,-8.645462036132812,-7.461529731750488
18392,,-6.876147270202637,
18393,2.8377275466918945,,-5.13197135925293
18413,2.160168409347534,-8.56645393371582,-5.510255336761475
18432,2.229600429534912,-12.145785331726074,-2.383427858352661
18452,2.253542423248291,-15.5311861038208,3.973177671432495
18472,1.183334231376648,-12.957419395446777,3.2620997428894043
18492,-1.6298527717590332,-9.10993766784668,-0.4345476031303406
18512,,-8.954314231872559,
18516,-1.0073603391647339,,0.03950432687997818
18532,1.6262614727020264,-10.831368446350098,0.585382342338562
18551,,-10.690110206604004,
18552,3.29502010345459,,1.3850456476211548
18572,3.754706859588623,-10.08437728881836,1.8183962106704712
18591,3.206434726715088,-10.216058731079102,2.053027868270874
18611,1.7172411680221558,-10.08198356628418,1.0761936902999878
18631,0.9630676507949829,-9.988609313964844,0.6356605291366577
18651,0.7811083197593689,-9.821015357971191,0.46088382601737976
18671,0.6374561786651611,-8.923190116882324,0.12330138683319092
18690,,-8.226476669311523,
18691,0.5823895931243896,,0.365115761756897
18710,1.0899603366851807,-8.367734909057617,0.9205705523490906
18730,2.4690206050872803,-9.059659004211426,1.116895079612732
18750,2.9239187240600586,-9.141061782836914,0.8056488633155823
18770,2.210446834564209,-8.705317497253418,0.5901707410812378
18790,1.3365631103515625,-8.573636054992676,0.02753331884741783
18810,1.6597803831100464,-8.487444877624512,-0.5614402890205383
18829,,-8.987833023071289,
18830,2.4187421798706055,,-0.8200140595436096
18849,,-9.040505409240723,
18850,3.230376720428467,,-0.645237386226654
18869,4.190451622009277,-9.320627212524414,0.5039794445037842
18889,4.666897773742676,-10.690110206604004,0.3292027413845062
18909,3.7906198501586914,-10.618284225463867,
18910,,,-0.38905778527259827
18929,3.2591071128845215,-10.764330863952637,-0.7649474143981934
18949,3.6373908519744873,-11.473014831542969,-0.5829881429672241
18969,4.149750232696533,-12.552799224853516,0.3292027413845062
18988,,-13.172897338867188,
18989,2.9239187240600586,,0.25019407272338867
19008,1.5951368808746338,-11.614272117614746,-0.13527239859104156
19028,0.35494041442871094,-10.417171478271484,1.0594342947006226
19048,-0.33698388934135437,-12.121843338012695,1.6148890256881714
19068,-0.6458359360694885,-13.18008041381836,2.450465440750122
19088,-0.9307458996772766,-14.010868072509766,2.630030632019043
19108,-0.3992331326007843,-15.662867546081543,2.3738510608673096
19127,,-15.483302116394043,
19128,0.5895721912384033,,1.138442873954773
19147,1.6789339780807495,-12.90714168548584,0.7410054206848145
19167,2.404376983642578,-10.924742698669434,0.6236895322799683
19187,2.138620615005493,-9.873687744140625,1.2868833541870117
19208,1.6071078777313232,-8.513781547546387,0.9516952037811279
19227,1.324592113494873,-7.398083209991455,0.6667851805686951
19247,0.8912416100502014,-6.260837554931641,0.5327098965644836
19267,0.35254621505737305,-5.197812080383301,0.5997475385665894
19286,,-4.015076160430908,
19287,-0.10953472554683685,,0.3531447649002075
19309,-0.47824180126190186,-3.272873640060425,-0.38905778527259827
19326,-0.619499683380127,-2.937685489654541,-1.1863269805908203
19346,-0.5883750915527344,-3.313575267791748,-1.9333178997039795
19366,0.08200141042470932,-4.534617900848389,-2.9939491748809814
19386,1.7196353673934937,-7.383718013763428,-4.67946720123291
19406,,-11.257535934448242,
19407,3.1681272983551025,,-6.6810197830200195
19426,1.3198037147521973,-14.719552040100098,-10.487800598144531
19445,-1.3569138050079346,-14.109030723571777,-9.17577838897705
19465,,-11.599906921386719,
19466,-0.739209771156311,,-3.8582561016082764
19485,-2.1493945121765137,-10.287884712219238,-2.649184226989746
19509,-2.139817714691162,-10.163386344909668,-5.002684593200684
19525,2.1936872005462646,-10.917559623718262,-2.0865468978881836
19545,3.448249101638794,-10.723628997802734,2.785653591156006
19565,2.0380642414093018,-10.019734382629395,3.8151605129241943
19585,0.6446388363838196,-11.195286750793457,1.0235211849212646
19605,1.0660183429718018,-9.095572471618652,1.0283095836639404
19624,2.6581623554229736,-8.339004516601562,1.3491326570510864
19644,4.2550950050354,-9.940725326538086,
19645,,,2.36188006401062
19664,4.298190593719482,-10.639832496643066,2.096123695373535
19684,2.9741971492767334,-10.283096313476562,0.8678981065750122
19704,1.3748703002929688,-9.624691009521484,0.07302315533161163
19723,,-9.083600997924805,
19724,0.4507084786891937,,0.25737667083740234
19743,,-9.071630477905273,
19744,-0.26994624733924866,,1.3180080652236938
19763,-0.4183867573738098,-9.160215377807617,2.141613483428955
19783,0.03890577703714371,-9.095572471618652,1.9835960865020752
19803,,-9.100360870361328,
19804,0.943913996219635,,1.5263035297393799
19823,2.205658197402954,-9.275136947631836,1.1839327812194824
19843,2.5743653774261475,-9.033323287963867,1.1791443824768066
19862,,-9.244012832641602,
19863,2.4187421798706055,,1.1959037780761719
19882,2.5025393962860107,-9.220070838928223,0.767341673374176
19902,,-9.114726066589355,
19903,2.425924777984619,,0.04189852997660637
19922,,-9.100360870361328,
19923,2.516904592514038,,-0.9876081943511963
19942,3.24953031539917,-8.547300338745117,-1.777694821357727
19962,4.578312397003174,-8.250418663024902,-0.4465186297893524
19985,5.366004467010498,-9.404424667358398,-0.017956512048840523
20002,4.951807498931885,-10.27591323852539,-0.3148375153541565
20022,3.800196647644043,-10.682928085327148,-0.8990227580070496
20041,,-11.125855445861816,
20042,2.5312697887420654,,-1.8734627962112427
20061,2.0428526401519775,-12.121843338012695,-2.3786394596099854
20081,2.006939649581909,-12.828132629394531,-2.098517894744873
20101,2.404376983642578,-11.827356338500977,-0.30286651849746704
20121,1.8704700469970703,-10.630255699157715,1.1025298833847046
20141,0.23283611238002777,-11.298237800598145,0.690727174282074
20161,-1.0528502464294434,-13.306973457336426,1.2701239585876465
20180,-2.1326351165771484,-15.409082412719727,1.7058687210083008
20200,-2.3337481021881104,-16.567874908447266,1.8950105905532837
20220,-1.2180501222610474,-16.977283477783203,0.9397241473197937
20240,0.9151836037635803,-14.602235794067383,0.3531447649002075
20260,2.5935189723968506,-12.442666053771973,0.3292027413845062
20282,1.9399019479751587,-10.357316970825195,0.6380547285079956
20300,0.8170213103294373,-8.403648376464844,0.5829881429672241
20319,,-6.619967937469482,
20320,0.23523031175136566,,-0.35075053572654724
20339,-0.15741875767707825,-5.348646640777588,-0.4465186297893524
20359,-0.262763649225235,-4.5394062995910645,-0.34835633635520935
20382,-0.018555063754320145,-3.737348794937134,-0.7745242714881897
20399,0.4770447015762329,-3.1435868740081787,-1.1216834783554077
20419,0.4315548539161682,-2.8131868839263916,-1.600523829460144
20439,0.40282443165779114,-3.2632968425750732,-2.721010208129883
20459,1.2072762250900269,-3.8331170082092285,-3.733757495880127
20480,2.536058187484741,-5.353435039520264,-4.863820552825928
20498,3.271078109741211,-8.554482460021973,-6.709750175476074
20518,3.1298201084136963,-12.349292755126953,-8.579621315002441
20538,0.2783259451389313,-14.085088729858398,-9.089587211608887
20558,-2.446275472640991,-12.524068832397461,-7.107187747955322
20582,-3.861248731613159,-9.770736694335938,-3.558980941772461
20598,-4.062361717224121,-9.720458984375,-2.5989060401916504
20617,,-10.934319496154785,
20618,-1.4933832883834839,,-3.0585925579071045
20637,2.3038206100463867,-12.035652160644531,-2.670732021331787
20657,5.3348798751831055,-11.870451927185059,1.0019733905792236
20678,4.994903087615967,-10.539276123046875,4.291606426239014
20697,1.4371196031570435,-11.003750801086426,
20717,0.3190273642539978,-9.150638580322266,0.9301473498344421
20737,1.2886791229248047,-7.793126583099365,0.6380547285079956
20757,3.5248634815216064,-8.75080680847168,2.742558002471924
20781,3.8289270401000977,-10.611102104187012,3.666719913482666
20796,,-10.900800704956055,
20797,2.7491421699523926,,2.160767078399658
20816,1.6525976657867432,-10.249577522277832,0.36750996112823486
20836,0.862511157989502,-9.337387084960938,-0.456095427274704
20856,0.383670836687088,-8.916007041931152,0.15921440720558167
20877,0.2783259451389313,-9.014169692993164,1.258152961730957
20895,,-9.078812599182129,
20896,0.7858967185020447,,2.0673930644989014
20915,1.7603367567062378,-9.406818389892578,1.8950105905532837
20935,2.653373956680298,-9.404424667358398,
20936,,,0.9516952037811279
20955,2.806602954864502,-8.908824920654297,-0.02274491637945175
20975,,-8.537723541259766,
20976,2.2415714263916016,,-0.05386953800916672
20995,1.4993687868118286,-8.552088737487793,0.15682020783424377
21015,1.2120646238327026,-9.114726066589355,0.25498247146606445
21035,1.8680758476257324,-9.888052940368652,-0.28371289372444153
21054,,-9.931148529052734,
21055,2.871246337890625,,-1.6651673316955566
21074,,-8.552088737487793,
21075,3.9486372470855713,,-0.9828197956085205
21094,4.58310079574585,-8.99740982055664,
21095,,,0.5925649404525757
21114,4.690839767456055,-10.769119262695312,0.4010287821292877
21134,4.302978992462158,-11.05642318725586,-0.4800374507904053
21154,3.4554316997528076,-11.058817863464355,-0.7433996200561523
21174,,-12.083536148071289,
21175,3.1202433109283447,,-0.5901707410812378
21194,2.6222493648529053,-12.957419395446777,-0.46327802538871765
21213,0.9295487999916077,-12.198457717895508,
21214,,,0.0347159244120121
21233,-0.9091981053352356,-10.278307914733887,
21234,,,0.4058171808719635
21253,-1.5364789962768555,-10.912771224975586,1.138442873954773
21273,,-12.51449203491211,
21274,-0.6338648796081543,,2.0865468978881836
21293,-0.36571431159973145,-14.032416343688965,2.251746654510498
21313,-0.9355342984199524,-15.085865020751953,1.2629413604736328
21333,-0.5476736426353455,-15.713146209716797,0.9085995554924011
21353,-0.0999579206109047,-14.020444869995117,0.3100491166114807
21374,1.0444705486297607,-11.42752456665039,0.6308721303939819
21473,1.8513164520263672,-9.931148529052734,0.9516952037811279
21544,0.2472013235092163,-4.268861770629883,-0.0011971008498221636
21558,-0.04967968538403511,-3.751713991165161,-1.8830395936965942
21652,0.1825578808784485,-4.259284973144531,-3.180696964263916
21680,-0.8852560520172119,-10.716446876525879,-7.174225330352783
21690,-2.0392613410949707,-8.528146743774414,-3.022679567337036
21714,-3.1310172080993652,-8.882488250732422,-2.828749418258667
21726,-0.3824737071990967,-12.310985565185547,-3.264493942260742
21737,1.0684125423431396,-14.0635404586792,-2.785653591156006
21743,2.433107376098633,-14.915876388549805,-0.5111620426177979
21752,3.510498285293579,-14.025233268737793,3.2812533378601074
21771,3.5440170764923096,-11.75553035736084,4.708197593688965
21773,2.586336374282837,-9.66299819946289,4.1431660652160645
21779,,-8.647856712341309,
21780,1.1306617259979248,,3.094505786895752
21789,-0.03770867735147476,-7.86734676361084,2.936488389968872
21799,,-7.422025203704834,
21800,-0.4638765752315521,,2.7257986068725586
21810,0.11552023142576218,-7.527369976043701,2.01232647895813
21819,1.2838906049728394,-8.183381080627441,1.5670050382614136
21829,2.715623378753662,-8.973467826843262,1.88782799243927
21839,3.9845502376556396,-9.830592155456543,2.8838160037994385
21850,4.779425144195557,-10.754754066467285,3.558980941772461
21859,4.903923511505127,-11.295844078063965,3.4344823360443115
21869,4.472967147827148,-11.319786071777344,2.6013002395629883
21879,3.7259764671325684,-10.975020408630371,1.5143325328826904
21888,,-10.54406452178955,
21889,2.7922377586364746,,0.5662286877632141
21901,,-9.998186111450195,
21902,1.997362732887268,,-0.1280897855758667
21908,1.4514847993850708,-9.390059471130371,-0.52552729845047
21919,1.1306617259979248,-8.848969459533691,-0.5446808934211731
21928,0.8864531517028809,-8.47547435760498,-0.2908954918384552
21938,0.7428010702133179,-8.461109161376953,
21939,,,0.27892449498176575
21950,0.536899745464325,-8.652645111083984,0.8248024582862854
21958,0.6757634282112122,-8.978256225585938,1.3658920526504517
21968,0.6039373874664307,-9.097966194152832,1.7298107147216797
21978,0.7428010702133179,-8.983044624328613,1.902193307876587
21988,0.8912416100502014,-8.959102630615234,1.8064252138137817
21999,1.082777738571167,-9.02135181427002,1.6053122282028198
22008,1.3509283065795898,-9.069235801696777,1.2413935661315918
22018,1.7627309560775757,-9.040505409240723,0.8487445116043091
22028,2.318185806274414,-9.08838939666748,0.6428431272506714
22038,2.844910144805908,-9.217676162719727,0.37469255924224854
22048,3.3189620971679688,-9.174580574035645,0.09696517139673233
22058,2.9311013221740723,-8.925583839416504,-0.02274491637945175
22067,,-8.734047889709473,
22068,2.5528175830841064,,-0.04668693244457245
22077,,-8.667010307312012,
22078,2.279878616333008,,-0.05147533491253853
22087,1.8393454551696777,-8.935160636901855,-0.08499415963888168
22098,1.513733983039856,-9.327810287475586,-0.3292027413845062
22107,1.3748703002929688,-9.734824180603027,-0.7649474143981934
22117,,-10.036493301391602,
22118,1.4036006927490234,,-1.3443442583084106
22127,1.6765397787094116,-9.983820915222168,-1.698686122894287
22137,2.2703018188476562,-9.47146224975586,-1.6364368200302124
22148,3.069965124130249,-8.959102630615234,-0.9133879542350769
22157,3.9414546489715576,-8.9064302444458,-0.013168109580874443
22167,4.7171759605407715,-9.370905876159668,0.4465186297893524
22177,5.2247467041015625,-10.103530883789062,0.3842693865299225
22187,5.33009147644043,-10.678139686584473,0.09696517139673233
22197,4.9805378913879395,-11.003750801086426,
22198,,,-0.11372458189725876
22207,4.281431198120117,-11.281478881835938,-0.28131869435310364
22217,3.4147300720214844,-11.410765647888184,-0.3531447649002075
22227,2.5767595767974854,-11.626243591308594,-0.32441434264183044
22237,1.7483657598495483,-11.75553035736084,-0.5111620426177979
22246,1.3748703002929688,-11.923124313354492,
22247,,,-0.6643909811973572
22259,1.7435773611068726,-12.191274642944336,-0.7936778664588928
22266,,-12.258312225341797,
22267,2.5288755893707275,,-0.39624038338661194
22276,3.227982521057129,-12.191274642944336,0.2454056739807129
22286,3.5727474689483643,-12.071564674377441,
22287,,,0.5949591398239136
22296,3.247136116027832,-11.707646369934082,
22297,,,0.41778820753097534
22306,2.2894554138183594,-11.08994197845459,0.23104046285152435
22316,1.1162965297698975,-10.486603736877441,-0.3387795388698578
22326,-0.12868833541870117,-10.156203269958496,-0.46806642413139343
22336,-1.225232720375061,-10.146626472473145,0.18794482946395874
22346,-1.7423802614212036,-10.970232009887695,0.8056488633155823
22356,-1.7088614702224731,-11.884817123413086,1.2318167686462402
22366,-1.5221136808395386,-12.622231483459473,1.581370234489441
22379,,-13.139378547668457,
22380,-0.9906009435653687,,2.036268472671509
22386,-0.3250128924846649,-13.594277381896973,2.4384944438934326
22396,0.46986207365989685,-14.00607967376709,2.476801633834839
22405,0.9870096445083618,-14.346056938171387,2.649184226989746
22416,0.9678560495376587,-15.030797958374023,2.213439464569092
22425,1.0684125423431396,-15.662867546081543,1.0211269855499268
22435,,-15.30373764038086,
22436,0.7906851172447205,,-0.30047231912612915
22446,0.9199720025062561,-13.795390129089355,-0.1999158412218094
22455,0.9965864419937134,-12.282255172729492,0.27413609623908997
22467,1.106719732284546,-11.281478881835938,0.7338228225708008
22475,1.2982559204101562,-10.524910926818848,1.2701239585876465
22485,1.1306617259979248,-9.763554573059082,1.5526398420333862
22495,,-8.815450668334961,
22496,1.2503718137741089,,1.294066071510315
22511,1.1546037197113037,-8.006210327148438,0.585382342338562
22515,1.0348936319351196,-7.5848307609558105,0.32202014327049255
22525,,-6.919242858886719,
22526,1.106719732284546,,0.11133038252592087
22535,1.0923545360565186,-6.258443355560303,-0.27653029561042786
22545,1.0205284357070923,-5.817910194396973,
22546,,,-0.4728548228740692
22555,0.8720879554748535,-5.525817394256592,-0.48243165016174316
22565,0.7332242727279663,-5.2672438621521,-0.3866635859012604
22575,0.5512649416923523,-4.965574264526367,-0.29568392038345337
22586,0.39803603291511536,-4.606443881988525,-0.243011474609375
22595,0.1777694821357727,-4.343081951141357,-0.333991140127182
22604,,-4.10366153717041,
22605,0.09636662155389786,,-0.5446808934211731
22614,-0.0999579206109047,-3.801992416381836,-0.8559271097183228
22624,-0.3010708689689636,-3.5051112174987793,-1.2677297592163086
22634,-0.4159925580024719,-3.4332852363586426,-1.8710685968399048
22645,-0.3776853084564209,-3.758896589279175,-2.6420016288757324
22654,-0.21966800093650818,-4.501099109649658,-3.5901055335998535
22665,0.058059390634298325,-5.784391403198242,-4.638765811920166
22674,0.5895721912384033,-7.565677165985107,-5.591658115386963
22684,1.2982559204101562,-9.35654067993164,-6.266822814941406
22694,1.3605051040649414,-10.788272857666016,-6.57806921005249
22704,0.6518214344978333,-11.63103199005127,-7.301117897033691
22714,-0.3728969097137451,-12.038045883178711,-8.833407402038574
22723,-1.1869255304336548,-12.105083465576172,-9.872490882873535
22733,,-11.549629211425781,
22734,-1.7806875705718994,,-9.815030097961426
22743,,-10.098742485046387,
22744,-1.732803463935852,,-8.809465408325195
22756,-1.0097545385360718,-8.863334655761719,-6.913257598876953
22764,-0.14784196019172668,-8.073247909545898,-4.710591793060303
22773,-0.0999579206109047,-7.4986395835876465,-2.6850972175598145
22783,-1.1629834175109863,-7.043741226196289,-1.5693992376327515
22793,-1.4742296934127808,-7.536946773529053,-2.4648306369781494
22803,-0.9187749028205872,-9.428366661071777,-4.241328239440918
22813,0.010175357572734356,-11.707646369934082,-4.5621514320373535
22823,,-13.747506141662598,
22825,1.0348936319351196,,-1.780089020729065
22833,1.8058266639709473,-15.413870811462402,1.3706804513931274
22843,2.4618380069732666,-16.127342224121094,3.3291375637054443
22853,3.3907880783081055,-14.542381286621094,3.4344823360443115
22862,3.3045969009399414,-12.047622680664062,
22863,,,1.9357120990753174
22873,,-9.749189376831055,
22875,2.2703018188476562,,1.8543092012405396
22882,0.9487023949623108,-8.216899871826172,
22883,,,2.0219032764434814
22892,,-7.51779317855835,
22893,0.5608417391777039,,1.2749123573303223
22902,1.1929110288619995,-8.02536392211914,0.5566518902778625
22912,2.3469161987304688,-9.141061782836914,0.5039794445037842
22922,,-10.017339706420898,
22924,3.601477861404419,,1.0307037830352783
22932,4.492120742797852,-10.563218116760254,2.0841526985168457
22942,4.745906352996826,-11.046846389770508,2.6587610244750977
22952,4.26706600189209,-11.5065336227417,2.208651065826416
22962,3.687669277191162,-11.496956825256348,
22972,3.175309896469116,-11.018115997314453,1.217451572418213
22982,2.5528175830841064,-10.591948509216309,0.8870517015457153
22992,1.8824410438537598,-10.146626472473145,0.5231330990791321
23001,1.370081901550293,-9.576807022094727,0.20709845423698425
23011,0.9487023949623108,-9.107542991638184,-0.03711012750864029
23023,0.37888240814208984,-8.772355079650879,-0.21428105235099792
23033,-0.16220717132091522,-8.528146743774414,-0.3627215623855591
23042,-0.4878185987472534,-8.427590370178223,-0.48722004890441895
23051,-0.5931634902954102,-8.33182144165039,-0.46327802538871765
23061,,-8.212111473083496,
23062,-0.4255693554878235,,-0.3196259140968323
23071,-0.26755204796791077,-7.972691535949707,-0.23343466222286224
23081,,-7.594407558441162,
23082,0.21607670187950134,,0.08259996026754379
23091,0.6709750294685364,-7.450755596160889,0.21667525172233582
23101,1.058835744857788,-7.589619159698486,0.5901707410812378
23111,1.5807716846466064,-7.910442352294922,0.8535329103469849
23122,,-8.221688270568848,
23123,1.9446903467178345,,0.9780313968658447
23131,2.160168409347534,-8.528146743774414,0.8248024582862854
23141,2.188898801803589,-8.80587387084961,0.6141127347946167
23151,1.79146146774292,-8.954314231872559,0.08738835901021957
23161,1.5520412921905518,-9.016563415527344,-0.24779987335205078
23172,1.3652935028076172,-8.935160636901855,-0.4920084476470947
23180,1.370081901550293,-8.992621421813965,
23181,,,-0.7362170219421387
23190,1.4562731981277466,-9.32302188873291,-1.1192892789840698
23200,1.5089455842971802,-9.921571731567383,-1.6843209266662598
23210,1.566406488418579,-10.309432983398438,-2.340332269668579
23220,1.8154034614562988,-10.079588890075684,-2.6659436225891113
23230,2.44747257232666,-9.423578262329102,-1.9620482921600342
23240,3.3859996795654297,-9.208099365234375,-0.52552729845047
23250,4.075530052185059,-9.983820915222168,0.6141127347946167
23260,4.458601951599121,-11.099518775939941,0.5183446407318115
23270,4.314949989318848,-11.377246856689453,-0.29568392038345337
23280,4.1425676345825195,-11.166556358337402,-0.8463503122329712
23290,4.05158805847168,-11.128249168395996,-1.013944387435913
23300,4.271854400634766,-11.48259162902832,-0.5590460896492004
23309,,-12.133813858032227,
23310,4.8704047203063965,,0.39384618401527405
23320,5.607819080352783,-12.919112205505371,1.3515268564224243
23329,,-13.75708293914795,
23330,6.139331817626953,,1.9692308902740479
23339,5.933430194854736,-14.566323280334473,
23340,,,1.6196774244308472
23349,4.731541156768799,-15.002067565917969,0.30286651849746704
23359,2.6007015705108643,-14.695610046386719,-0.9181763529777527
23370,0.3645172119140625,-13.527239799499512,-1.1528080701828003
23379,-1.1869255304336548,-11.961431503295898,-0.5398924946784973
23389,-2.1541829109191895,-10.869675636291504,0.005985504016280174
23399,-2.0392613410949707,-10.462661743164062,0.6667851805686951
23409,-1.3784615993499756,-10.041281700134277,1.8351556062698364
23419,,-10.807426452636719,
23420,-0.5309142470359802,,2.36188006401062
23429,0.10594342648983002,-11.726799964904785,2.8215668201446533
23439,0.5752069354057312,-12.191274642944336,3.2573113441467285
23448,0.7667431235313416,-12.832921028137207,
23449,,,2.6204538345336914
23459,0.4076128304004669,-13.421895027160645,1.9069817066192627
23468,,-14.484920501708984,
23469,0.3884592354297638,,2.5007436275482178
23478,,-15.452178001403809,
23479,0.41718965768814087,,2.5246856212615967
23488,0.35494041442871094,-15.480908393859863,1.9405004978179932
23498,0.6661866307258606,-14.882357597351074,1.5622166395187378
23511,0.9247604012489319,-13.929465293884277,1.2413935661315918
23518,1.6717513799667358,-12.627019882202148,0.7625532150268555
23528,2.5049335956573486,-11.525687217712402,0.8631097078323364
23538,2.5719711780548096,-10.769119262695312,1.1887211799621582
23548,2.452261209487915,-10.012551307678223,1.2749123573303223
23558,2.667739152908325,-9.32302188873291,1.2749123573303223
23568,2.672527551651001,-8.580819129943848,1.0546458959579468
23578,2.60548996925354,-7.752425193786621,0.8152256608009338
23588,1.9877859354019165,-7.249642848968506,0.4321534037590027
23598,1.3221979141235352,-6.885724067687988,0.3842693865299225
23608,1.1306617259979248,-6.464344501495361,0.4991910457611084
23617,,-6.5265936851501465,
23618,1.0971429347991943,,0.5327098965644836
23627,0.6805518269538879,-6.1770405769348145,0.5279214978218079
23637,,-5.463568210601807,
23638,0.3932476341724396,,0.547075092792511
23647,0.41718965768814087,-4.726154327392578,0.5374982953071594
23657,0.3357867896556854,-4.156333923339844,0.4034229815006256
23668,0.03890577703714371,-3.6774938106536865,0.05386953800916672
23677,-0.36332011222839355,-3.3423056602478027,-0.34356793761253357
23687,-0.8469488620758057,-3.1459810733795166,-0.7314286231994629
23697,-1.2443863153457642,-3.00711727142334,-1.0618284940719604
23707,-1.3401544094085693,-3.045424461364746,-1.679532527923584
23717,-1.0432734489440918,-3.2561142444610596,-2.40736985206604
23727,-0.47824180126190186,-3.955221176147461,-3.288435935974121
23737,0.3357867896556854,-5.2672438621521,-4.169502258300781
23746,1.0971429347991943,-7.005434036254883,-4.854243755340576
23760,1.446696400642395,-9.078812599182129,-5.462371349334717
23767,1.5041571855545044,-11.405977249145508,-6.918045997619629
23776,,-14.566323280334473,
23777,0.8720879554748535,,-9.388861656188965
23786,-0.1430535465478897,-16.601394653320312,-10.533289909362793
23796,-1.0145429372787476,-16.05072784423828,-9.944316864013672
23806,-1.445499300956726,-13.752294540405273,-9.101557731628418
23816,-0.07122749835252762,-10.687716484069824,-7.904457092285156
23826,1.5041571855545044,-8.427590370178223,-6.094440460205078
23836,1.7435773611068726,-6.8809356689453125,-4.045003890991211
23846,1.082777738571167,-5.985504150390625,-3.934870481491089
23856,-0.5740098357200623,-6.670246124267578,-5.462371349334717
23866,-0.10953472554683685,-9.404424667358398,-5.759252071380615
23876,1.8441338539123535,-12.756306648254395,-1.8471266031265259
23885,,-15.854403495788574,
23886,1.513733983039856,,4.1431660652160645
23896,0.14903905987739563,-17.535133361816406,7.926004886627197
23905,-1.1390414237976074,-17.003620147705078,6.867767810821533
23915,,-14.144943237304688,
23916,-1.8285715579986572,,2.0889410972595215
23925,-1.1438298225402832,-11.022904396057129,-0.4297592043876648
23935,-0.06165069341659546,-8.561665534973145,0.9205705523490906
23945,1.7531541585922241,-6.584054470062256,1.7968484163284302
23955,3.41951847076416,-5.602431774139404,2.5103204250335693
23965,4.434659957885742,-5.975927352905273,2.7497406005859375
23975,4.994903087615967,-7.546523571014404,2.8167781829833984
23985,5.598242282867432,-8.71489429473877,3.137601375579834
23995,5.502473831176758,-10.141838073730469,2.759317398071289
24009,,-11.434707641601562,
24010,4.817732334136963,,1.6531962156295776
24022,4.109048843383789,-12.09550666809082,0.8535329103469849
24025,3.227982521057129,-12.253523826599121,0.3315969407558441
24035,2.203263998031616,-12.014103889465332,-0.1759738177061081
24045,1.2599486112594604,-11.281478881835938,-0.3387795388698578
24054,0.18734627962112427,-10.429142951965332,
24055,,,-0.4920084476470947
24064,-0.6889315247535706,-9.567230224609375,-0.6308721303939819
24074,-1.4838064908981323,-8.949525833129883,-0.7122750282287598
24085,-1.8956091403961182,-8.537723541259766,-0.568622887134552
24094,-1.7998411655426025,-8.35097599029541,-0.25737667083740234
24104,-1.3640964031219482,-8.283937454223633,0.02992752194404602
24115,-0.7272387742996216,-8.216899871826172,0.23104046285152435
24136,0.2783259451389313,-8.26478385925293,0.25498247146606445
24154,1.5783774852752686,-8.638279914855957,0.27413609623908997
24174,2.1338322162628174,-9.014169692993164,0.2621650993824005
24193,1.6621745824813843,-8.853757858276367,0.07541735470294952
24213,1.27191960811615,-8.635885238647461,0.03711012750864029
24233,,-8.772355079650879,
24234,1.4778209924697876,,-0.05386953800916672
24253,1.8632874488830566,-8.999804496765137,-0.5111620426177979
24273,2.0260932445526123,-9.217676162719727,-1.279700756072998
24295,2.380434989929199,-9.521739959716797,-1.0067617893218994
24313,2.5097219944000244,-10.644620895385742,0.07541735470294952
24333,2.3325510025024414,-11.597513198852539,0.06584054976701736
24353,2.8353333473205566,-11.662156105041504,-0.29807811975479126
24372,3.7235822677612305,-11.956643104553223,-0.9469067454338074
24393,5.162497520446777,-12.389993667602539,-0.6739677786827087
24412,5.423465251922607,-13.00051498413086,-0.5734112858772278
24432,4.070741653442383,-12.75870132446289,-0.3627215623855591
24452,1.4299370050430298,-10.146626472473145,-0.4010287821292877
24472,-0.6290764808654785,-9.86889934539795,0.35075053572654724
24493,-1.756745457649231,-10.87446403503418,0.8798691034317017
24511,-1.3784615993499756,-11.221623420715332,2.9484593868255615
24531,0.23283611238002777,-12.2990140914917,
24532,,,3.95641827583313
24551,0.4387374520301819,-13.196839332580566,2.589329242706299
24571,0.2735375463962555,-14.899117469787598,0.5805938839912415
24591,,-13.48653793334961,
24592,0.3860650360584259,,0.5758054852485657
24611,0.618302583694458,-11.288661003112793,1.0235211849212646
24631,0.9894038438796997,-9.490615844726562,1.0857704877853394
24650,,-8.4108304977417,
24651,1.635838270187378,,0.36750996112823486
24670,1.6837223768234253,-7.898471355438232,-0.13287819921970367
24691,1.3557167053222656,-7.082048416137695,-0.29807811975479126
24710,0.6805518269538879,-6.145915985107422,0.010773907415568829
24730,0.07003039866685867,-5.1595048904418945,0.16639702022075653
24750,-0.5117605924606323,-4.180276393890381,-0.1711854189634323
24770,-1.0241197347640991,-3.646369218826294,-0.6476315855979919
24790,-1.0336965322494507,-4.003105163574219,-1.7106571197509766
24809,,-5.600037574768066,
24810,0.15143325924873352,,-2.9867665767669678
24829,,-8.971074104309082,
24830,0.8529343605041504,,-4.083311080932617
24849,,-13.472172737121582,
24850,0.718859076499939,,-6.36498498916626
24869,0.2998737692832947,-16.328454971313477,-8.948328971862793
24889,-0.10953472554683685,-12.45703125,-7.767987251281738
24909,-0.43993455171585083,-10.192116737365723,-4.5836992263793945
24929,-1.3090298175811768,-11.21444034576416,-4.787206172943115
24948,0.8720879554748535,-11.382035255432129,-2.184709072113037
24968,3.7618894577026367,-9.57201862335205,
24969,,,3.6762967109680176
24988,2.5121161937713623,-8.662221908569336,4.64594841003418
25008,1.0947487354278564,-9.591172218322754,0.1951274424791336
25028,2.670133352279663,-8.243236541748047,-0.22864626348018646
25048,4.010886192321777,-8.087613105773926,0.9229647517204285
25069,,-9.509769439697266,
25070,4.128202438354492,,2.45285964012146
25120,3.2591071128845215,-10.187328338623047,2.076969861984253
25188,,-10.192116737365723,
25189,-0.025737667456269264,-9.694122314453125,-0.13766659796237946
25253,,-8.803479194641113,
25319,,-8.669404029846191,
25320,2.210446834564209,-8.559270858764648,1.0977414846420288
25386,0.4794389009475708,-9.821015357971191,-0.6260837316513062
25453,4.733935356140137,-11.690886497497559,0.09935937076807022
25518,2.7994203567504883,-12.87362289428711,-0.010773907415568829
25586,0.40282443165779114,-9.016563415527344,0.19033902883529663
25626,-0.6817489266395569,-14.09705924987793,1.8710685968399048
25652,-0.7416039705276489,-14.721946716308594,
25653,,,0.9588778018951416
25745,1.9207483530044556,-10.855310440063477,0.9373299479484558
25785,,-5.6455278396606445,
25786,0.1586158573627472,-4.651933670043945,0.3148375153541565
25853,-1.3162124156951904,-3.5960910320281982,-0.7242460250854492
25919,,-8.525752067565918,
25920,1.2647370100021362,-13.024456977844238,-5.385756492614746
25986,-1.4143747091293335,-11.681309700012207,-8.292317390441895
26053,3.24953031539917,-11.346121788024902,4.638765811920166
26120,1.1976994276046753,-9.509769439697266,1.2629413604736328
26125,3.225588321685791,-10.017339706420898,1.9812018871307373
26186,2.761113166809082,-10.723628997802734,1.2006921768188477
26281,0.12270283699035645,-9.05247688293457,-0.8463503122329712
26380,,-8.765172004699707,
26381,2.141014814376831,-8.846575736999512,0.9876081943511963
26480,2.56000018119812,-9.172186851501465,-0.669179379940033
26519,4.5854949951171875,-12.746729850769043,-0.06823474913835526
26550,0.1586158573627472,-11.947066307067871,0.18076223134994507
26626,-0.29388827085494995,-9.41639518737793,0.11133038252592087
26718,-0.3944447338581085,-11.90157699584961,2.0889410972595215
26739,,-9.495404243469238,
26740,2.0236990451812744,,1.0259153842926025
26756,,-8.403648376464844,
26757,2.121861219406128,,0.4537012279033661
26776,1.8896236419677734,-8.145073890686035,-0.28131869435310364
26796,0.8864531517028809,-7.295132637023926,-0.243011474609375
26816,0.11791443079710007,-6.392518520355225,-0.3076549172401428
26836,-0.18375498056411743,-5.453991413116455,
26839,,,-0.5159504413604736
26856,-0.3034650683403015,-4.644751071929932,-1.1671733856201172
26875,-0.7416039705276489,-4.37420654296875,-1.9117701053619385
26896,-0.48063600063323975,-4.987122058868408,-3.1040825843811035
26915,0.3357867896556854,-6.5912370681762695,-4.332307815551758
26935,,-9.23682975769043,
26936,0.9702502489089966,,-5.270834922790527
26955,0.4291606545448303,-13.603854179382324,-8.007407188415527
26975,-0.10953472554683685,-14.844050407409668,-10.36569595336914
26995,0.821809709072113,-12.260706901550293,-8.04810905456543
27015,0.5943605899810791,-13.75708293914795,-4.246116638183594
27039,1.3198037147521973,-17.26219367980957,-3.2142157554626465
27054,,-10.599130630493164,
27055,3.931877851486206,,6.350619792938232
27074,-1.368884801864624,-3.5027170181274414,6.3482255935668945
27094,-4.194042682647705,-5.207388877868652,2.6180596351623535
27114,0.9391255974769592,-9.232041358947754,3.4177229404449463
27135,6.405087947845459,-12.136208534240723,4.428076267242432
27154,5.674856662750244,-12.641385078430176,2.9963433742523193
27174,3.335721492767334,-11.08754825592041,-0.07781155407428741
27193,,-9.720458984375,
27194,2.078765630722046,,-1.1647791862487793
27213,,-9.222464561462402,
27214,0.9463081955909729,,-1.1073182821273804
27234,-0.06404489278793335,-9.042900085449219,-0.8056488633155823
27253,0.06763619929552078,-9.394847869873047,-0.3770867586135864
27273,0.5153518915176392,-9.114726066589355,0.04908113554120064
27293,0.7739257216453552,-8.44434928894043,0.11133038252592087
27313,0.8289923667907715,-7.936778545379639,0.21188685297966003
27333,1.1210849285125732,-7.953537940979004,0.4800374507904053
27352,1.932719349861145,-8.461109161376953,
27353,,,1.0211269855499268
27372,1.9638439416885376,-8.655038833618164,0.9038111567497253
27392,1.4107834100723267,-8.597578048706055,0.21667525172233582
27412,1.2791022062301636,-9.069235801696777,-0.9133879542350769
27432,1.5711948871612549,-8.705317497253418,-2.1703438758850098
27452,2.167351007461548,-8.389283180236816,-0.8271966576576233
27471,,-10.453084945678711,
27472,2.457049608230591,,0.424970805644989
27491,,-11.159374237060547,
27492,3.316567897796631,,0.29568392038345337
27511,4.015674591064453,-10.757147789001465,0.16879121959209442
27532,5.140949726104736,-11.243170738220215,1.0905588865280151
27551,4.101866245269775,-12.995726585388184,0.39384618401527405
27571,1.2767080068588257,-13.543998718261719,
27572,,,0.0802057534456253
27591,-1.3976151943206787,-11.930307388305664,0.32202014327049255
27611,-1.775899052619934,-8.975862503051758,1.2557587623596191
27630,,-8.913613319396973,
27631,-1.1318588256835938,,1.655590534210205
27650,0.07481880486011505,-12.109871864318848,
27651,,,1.7202339172363281
27670,0.4554968774318695,-13.907917976379395,1.945288896560669
27690,-0.6721721291542053,-13.900734901428223,1.3898340463638306
27710,-1.5963339805603027,-13.924676895141602,1.3970166444778442
27730,-1.7160440683364868,-13.625401496887207,1.1623848676681519
27750,0.26396074891090393,-12.258312225341797,0.8990227580070496
27771,1.3772644996643066,-10.740388870239258,0.7864952683448792
27789,,-9.737217903137207,
27790,2.02848744392395,,1.1791443824768066
27809,1.9925743341445923,-8.959102630615234,0.8080430626869202
27829,1.5209165811538696,-8.293514251708984,0.19273324310779572
27849,0.6973112225532532,-7.19936466217041,0.25737667083740234
27869,0.16819266974925995,-5.48272180557251,0.29568392038345337
27889,-0.18375498056411743,-4.086902141571045,0.09217676520347595
27908,,-3.0597896575927734,
27909,-0.6937199234962463,,-0.39384618401527405
27928,,-3.1507694721221924,
27929,-0.8900445103645325,,-1.1192892789840698
27948,-0.1646013706922531,-4.5609540939331055,-2.431311845779419
27968,0.9941922426223755,-7.1251444816589355,-3.4320881366729736
27988,1.3724761009216309,-10.189722061157227,-3.9588124752044678
28008,0.6206967830657959,-13.397953033447266,-7.375338554382324
28028,-0.3321954905986786,-13.773842811584473,-9.398438453674316
28048,0.12509703636169434,-10.934319496154785,-6.66904878616333
28067,,-10.54406452178955,
28068,0.6637924313545227,,-2.756923198699951
28087,0.23762452602386475,-12.658143997192383,-2.0458452701568604
28107,1.0133458375930786,-14.81771469116211,0.8080430626869202
28127,1.106719732284546,-14.860810279846191,3.8151605129241943
28147,-0.05446808785200119,-9.744400978088379,-0.46567222476005554
28167,-0.8086416125297546,-5.9519853591918945,-1.988384485244751
28187,0.5105634927749634,-3.7708675861358643,1.677138328552246
28207,,-4.702212333679199,
28208,2.6174609661102295,,2.4672248363494873
28226,,-9.066842079162598,
28227,4.238335609436035,,3.578134536743164
28246,4.396352767944336,-12.58152961730957,
28247,,,3.1735143661499023
28266,3.5440170764923096,-13.558363914489746,0.7793126702308655
28286,2.390011787414551,-11.293449401855469,-0.7146692276000977
28308,0.4818331003189087,-8.884882926940918,-1.1504138708114624
28326,-0.5859808921813965,-8.451532363891602,-0.5422866940498352
28346,-0.7846996188163757,-9.684545516967773,0.5829881429672241
28366,-0.31783026456832886,-10.192116737365723,1.0211269855499268
28385,,-9.758766174316406,
28386,0.7236474752426147,,0.8631097078323364
28407,1.6789339780807495,-9.248801231384277,0.7218518257141113
28425,2.3924059867858887,-9.057265281677246,0.46567222476005554
28445,2.4402899742126465,-8.779537200927734,
28446,,,0.3100491166114807
28465,1.9638439416885376,-8.786720275878906,0.3076549172401428
28485,1.5233107805252075,-8.944737434387207,0.37469255924224854
28506,,-8.987833023071289,
28507,1.3581109046936035,,-0.03711012750864029
28525,1.513733983039856,-9.062053680419922,-0.9349357485771179
28544,2.0644004344940186,-9.251194953918457,-1.4496891498565674
28564,2.425924777984619,-9.77791976928711,-0.2454056739807129
28585,2.16495680809021,-10.92953109741211,0.6236895322799683
28605,1.7723077535629272,-11.08994197845459,0.5231330990791321
28625,,-11.022904396057129,
28626,2.050035238265991,,0.5805938839912415
28644,2.562394380569458,-11.496956825256348,0.8774749040603638
28664,2.648585557937622,-12.203246116638184,-0.1280897855758667
28684,2.5767595767974854,-12.100295066833496,-1.456871747970581
28704,1.8249802589416504,-10.893617630004883,-0.6141127347946167
28723,-0.20530278980731964,-10.086771965026855,-0.4776432514190674
28743,-0.6530185341835022,-9.375694274902344,0.5279214978218079
28763,0.5752069354057312,-9.493009567260742,1.9548656940460205
28783,2.5576059818267822,-11.650185585021973,2.4887726306915283
28803,3.66851544380188,-13.388376235961914,2.313995838165283
28822,,-13.37161636352539,
28823,3.3189620971679688,,0.9349357485771179
28842,,-12.246341705322266,
28843,2.366069793701172,,0.13527239859104156
28862,1.5496470928192139,-10.699687004089355,0.44412440061569214
28882,1.446696400642395,-9.485827445983887,0.6356605291366577
28903,1.7507599592208862,-9.210494041442871,0.568622887134552
28922,1.9614497423171997,-9.2033109664917,0.4465186297893524
28942,1.7842788696289062,-8.59997272491455,0.4082113802433014
28962,1.4443022012710571,-7.790732383728027,0.5542576909065247
28982,0.7715315222740173,-6.8593878746032715,0.5614402890205383
29001,0.0867898091673851,-6.313509941101074,0.04908113554120064
29021,0.228047713637352,-6.619967937469482,-1.114500880241394
29041,1.0540473461151123,-7.524975776672363,-1.985990285873413
29061,1.669357180595398,-8.616731643676758,-1.8950105905532837
29081,1.6741455793380737,-9.919178009033203,-2.5797524452209473
29101,1.1905168294906616,-10.627861022949219,-3.757699489593506
29121,1.080383539199829,-8.89445972442627,-3.7050271034240723
29140,,-7.819462776184082,
29141,1.8513164520263672,,-2.5989060401916504
29160,2.5312697887420654,-8.760383605957031,
29161,,,-1.3994108438491821
29180,2.5145103931427,-10.766724586486816,0.1256955862045288
29200,2.3995885848999023,-12.076353073120117,2.3331496715545654
29220,0.8553285598754883,-11.168951034545898,3.4177229404449463
29240,-0.9355342984199524,-9.821015357971191,3.3937809467315674
29260,-1.6992846727371216,-9.14345645904541,1.5957354307174683
29279,,-9.390059471130371,
29280,-1.4431051015853882,,0.11851298063993454
29299,,-10.15141487121582,
29300,0.1562216579914093,,-0.013168109580874443
29319,,-10.589553833007812,
29320,1.7938556671142578,,-0.06823474913835526
29339,2.3325510025024414,-10.718840599060059,-0.4489128291606903
29359,2.2894554138183594,-10.395624160766602,-0.24779987335205078
29379,2.2176294326782227,-10.000580787658691,0.4273650050163269
29399,1.8273744583129883,-9.828198432922363,0.7912836670875549
29418,,-9.72285270690918,
29419,1.4371196031570435,,0.8750807046890259
29438,1.346139907836914,-9.897629737854004,
29439,,,0.4106055796146393
29458,1.6382324695587158,-9.914389610290527,0.3387795388698578
29478,,-9.761159896850586,
29481,1.755548357963562,,0.6308721303939819
29498,1.4012064933776855,-9.543288230895996,0.6212953329086304
29518,1.0708067417144775,-9.493009567260742,0.48243165016174316
29538,0.922366201877594,-9.390059471130371,0.48722004890441895
29558,,-9.346963882446289,
29579,1.3413515090942383,-9.30386734008789,0.5279214978218079
29597,,-9.397241592407227,
29598,1.8465280532836914,,0.7864952683448792
29617,2.23199462890625,-9.473855972290039,1.1025298833847046
29637,,-9.703699111938477,
29638,2.27748441696167,,1.3012486696243286
29657,1.8824410438537598,-10.0580415725708,1.4856021404266357
29678,1.6717513799667358,-10.335768699645996,1.6651673316955566
29697,1.5975310802459717,-10.795455932617188,1.6843209266662598
29717,1.3126211166381836,-11.0300874710083,1.6196774244308472
29736,0.8888474106788635,-11.125855445861816,1.6077064275741577
29756,0.12509703636169434,-11.286267280578613,1.765723705291748
29777,-1.3617022037506104,-11.549629211425781,1.016338586807251
29797,-2.498948097229004,-10.891223907470703,0.0586579404771328
29816,-1.8836381435394287,-9.947908401489258,-0.5901707410812378
29836,-1.0001777410507202,-9.457097053527832,-1.0833762884140015
29856,-0.43754035234451294,-9.153033256530762,-1.9524714946746826
29876,0.07003039866685867,-9.660603523254395,-2.7976245880126953
29895,,-10.709263801574707,
29896,0.436343252658844,,-2.874239206314087
29915,,-10.63743782043457,
29916,0.47225627303123474,,-1.7968484163284302
29935,1.0205284357070923,-9.90241813659668,1.0690110921859741
29955,1.9590555429458618,-9.919178009033203,4.631583213806152
29976,1.3293805122375488,-11.05642318725586,5.608417510986328
29995,-0.6051344871520996,-11.63103199005127,2.522291421890259
30015,-1.4024035930633545,-11.939884185791016,-1.1456254720687866
30035,-1.323395013809204,-11.405977249145508,-1.96683669090271
30054,-0.9115923047065735,-10.070012092590332,-0.06823474913835526
30074,,-9.404424667358398,
30075,-0.3250128924846649,,0.30047231912612915
30094,-0.23163901269435883,-9.677363395690918,-0.5710170865058899
30114,-0.21009120345115662,-9.315838813781738,-1.3419500589370728
30134,-0.2867056429386139,-8.482656478881836,-1.5430630445480347
30154,0.13946224749088287,-7.920019149780273,-1.4496891498565674
30175,0.5608417391777039,-7.728483200073242,-1.7417817115783691
30274,,-7.501033782958984,
30275,1.0133458375930786,,-2.2206220626831055
30362,1.8680758476257324,-8.47547435760498,-6.204573631286621
30428,,-10.60152530670166,
30429,2.3253684043884277,-13.979743957519531,-1.88782799243927
30495,0.1322796493768692,-9.095572471618652,3.003525972366333
30524,3.4314894676208496,-10.781089782714844,1.701080322265625
30612,,-11.159374237060547,
30613,2.9909565448760986,,1.8926163911819458
30695,1.1330559253692627,-9.509769439697266,
30696,,,-0.4010287821292877
30791,0.9127894043922424,-8.832210540771484,0.7362170219421387
30828,1.468244194984436,-9.251194953918457,-0.2669534981250763
30895,2.162562608718872,-9.500192642211914,-0.7601590156555176
30962,2.054823637008667,-11.130643844604492,0.5351040959358215
31029,1.7962498664855957,-12.18409252166748,-0.5374982953071594
31095,0.6254851818084717,-8.578424453735352,1.1336544752120972
31126,2.1338322162628174,-13.455413818359375,2.3235726356506348
31208,1.9279309511184692,-13.445837020874023,1.0833762884140015
31228,1.7603367567062378,-9.694122314453125,-0.1711854189634323
31327,,-8.743624687194824,
31328,1.3126211166381836,,-0.35075053572654724
31427,-1.0097545385360718,-5.22175407409668,-1.6915035247802734
31517,,-11.264719009399414,
31518,2.9550435543060303,,-9.44871711730957
31561,,-11.911153793334961,
31562,1.7531541585922241,,6.245275020599365
31628,,-6.63433313369751,
31629,-4.636970043182373,-7.6566572189331055,-0.16400282084941864
31695,4.43705415725708,-11.6430025100708,3.999513864517212
31762,0.11312603205442429,-9.107542991638184,-0.8391677141189575
31828,,-9.313444137573242,
31829,0.2495955228805542,-8.971074104309082,0.5063736438751221
31895,1.3198037147521973,-8.755595207214355,0.37469255924224854
31962,1.492186188697815,-9.334992408752441,-0.3579331636428833
32042,,-10.218452453613281,
32043,2.454655408859253,,0.6667851805686951
32095,2.0165164470672607,-13.663708686828613,-1.0019733905792236
32128,0.35733461380004883,-8.992621421813965,-0.04668693244457245
32161,0.5991489887237549,-10.307038307189941,
32162,-0.322618693113327,,2.0865468978881836
32262,-1.1390414237976074,-14.192827224731445,0.6955155730247498
32294,1.3413515090942383,-10.101137161254883,0.9756371974945068
32362,1.3317747116088867,-9.739612579345703,0.3124433159828186
32429,-0.016160860657691956,-5.023035049438477,
32430,,,0.5231330990791321
32495,-0.8589198589324951,-4.474762916564941,-2.299630641937256
32550,,-13.42668342590332,
32551,1.856104850769043,,
32553,,,-7.930793285369873
32554,,,-10.064026832580566
32626,0.7715315222740173,-6.603208065032959,
32627,0.33339259028434753,,-4.485537052154541
32695,0.6637924313545227,-12.76109504699707,4.255693435668945
32778,1.0133458375930786,-9.002198219299316,2.366668462753296
32828,1.5544354915618896,-9.62947940826416,-0.9445125460624695
32896,0.2783259451389313,-8.554482460021973,-0.38905778527259827
32976,,-8.401253700256348,
32977,0.9103952050209045,,0.17836803197860718
33028,1.7196353673934937,-9.39245319366455,-0.9923965930938721
33098,3.3500866889953613,-9.105149269104004,-0.03711012750864029
33126,3.4075474739074707,-11.702857971191406,0.005985504016280174
33215,2.380434989929199,-13.103466033935547,-0.04908113554120064
33295,,-13.366827964782715,
33296,0.055665191262960434,,2.167949676513672
33362,0.7667431235313416,-11.628637313842773,0.7122750282287598
33428,,-7.967903137207031,
33429,1.614290475845337,-7.194576263427734,0.6428431272506714
33495,-0.19572599232196808,-4.2760443687438965,0.4800374507904053
33544,0.8744821548461914,-7.261613845825195,-3.8726212978363037
33629,1.5065513849258423,-15.040374755859375,-6.901286602020264
33711,1.3628993034362793,-9.342175483703613,-2.7257986068725586
33761,0.6254851818084717,-7.592013359069824,1.6484078168869019
33829,2.804208755493164,-9.423578262329102,3.535038709640503
33895,1.7387889623641968,-10.204087257385254,0.4537012279033661
33962,0.6613982319831848,-8.305485725402832,0.5398924946784973
34028,,-9.026140213012695,
34029,2.030881643295288,-9.05247688293457,1.2509703636169434
34095,2.4618380069732666,-10.014945983886719,-1.7154455184936523
34162,3.9151182174682617,-11.319786071777344,-0.568622887134552
34229,3.7475242614746094,-12.880805015563965,0.3842693865299225
34295,-1.4766238927841187,-10.216058731079102,1.746570110321045
34362,-0.9235633015632629,-14.190433502197266,0.970848798751831
34428,,-10.99656867980957,
34429,0.3214215636253357,-9.892841339111328,1.1288660764694214
34495,0.8768763542175293,-8.039729118347168,0.11611878126859665
34536,-0.921169102191925,-4.034229755401611,0.0802057534456253
34624,-0.8565256595611572,-4.211400985717773,-2.2469582557678223
34695,-0.49978959560394287,-10.680533409118652,-8.057685852050781
34762,0.5225345492362976,-13.345280647277832,0.7745242714881897
34829,-0.34177228808403015,-7.469909191131592,0.8678981065750122
34895,3.3022027015686035,-11.475408554077148,
34896,1.058835744857788,,2.2230162620544434
34981,0.314238965511322,-9.263166427612305,-0.8559271097183228
35029,,-8.056488990783691,
35030,2.279878616333008,-7.8314337730407715,0.8846575021743774
35096,1.468244194984436,-7.908048152923584,0.456095427274704
35162,1.6023194789886475,-8.99740982055664,-2.100912094116211
35216,4.125808238983154,-11.135432243347168,-0.6763619780540466
35217,4.113837242126465,-11.853693008422852,-0.3196259140968323
35237,3.338115692138672,-12.955025672912598,-0.35075053572654724
35257,1.911171555519104,-12.78503704071045,-0.2645592987537384
35276,-0.14784196019172668,-10.977415084838867,-0.6596025824546814
35296,-1.3162124156951904,-9.454702377319336,0.6308721303939819
35316,-2.2020668983459473,-10.44350814819336,1.7633295059204102
35336,-2.3361423015594482,-12.878411293029785,1.7298107147216797
35356,-1.2372037172317505,-14.43224811553955,1.2270283699035645
35376,-0.5141547918319702,-15.51921558380127,0.8104372620582581
35395,,-14.678850173950195,
35396,-0.0017956512747332454,,0.5542576909065247
35415,,-12.813767433166504,
35416,0.6518214344978333,,0.7697358727455139
35435,0.5129576921463013,-11.02051067352295,1.071405291557312
35455,0.40043023228645325,-10.129867553710938,1.5191209316253662
35475,0.1777694821357727,-8.645462036132812,0.7242460250854492
35495,0.25917232036590576,-7.144298076629639,0.25737667083740234
35514,,-6.2632317543029785,
35515,0.2974795699119568,,0.23582886159420013
35534,-0.06883329898118973,-5.331887245178223,0.3866635859012604
35554,-0.5237316489219666,-4.520252704620361,0.2406172752380371
35574,-0.6362590789794922,-3.88818359375,-0.729034423828125
35594,-0.4016273319721222,-4.436455726623535,-1.8590975999832153
35614,0.26156654953956604,-5.882553577423096,-2.8407204151153564
35633,1.0851719379425049,-7.948749542236328,-3.6116533279418945
35653,1.367687702178955,-10.647014617919922,-4.4041337966918945
35673,1.3221979141235352,-12.492944717407227,-6.918045997619629
35693,0.37409400939941406,-11.334151268005371,-8.342596054077148
35713,-0.4734533727169037,-8.832210540771484,-5.720944881439209
35733,-1.7304092645645142,-8.154650688171387,-3.0657753944396973
35752,-2.075174331665039,-9.184157371520996,-2.096123695373535
35772,-0.8589198589324951,-11.461043357849121,-1.3754688501358032
35792,-0.023343466222286224,-14.34366226196289,-1.4065934419631958
35812,0.8768763542175293,-14.94460678100586,0.9876081943511963
35832,0.9510966539382935,-9.974244117736816,2.874239206314087
35852,0.579995334148407,-7.90086555480957,1.6172832250595093
35871,,-7.350199222564697,
35872,2.0644004344940186,,2.603694438934326
35891,3.29502010345459,-9.050082206726074,2.5031378269195557
35911,4.032433986663818,-11.101913452148438,2.8215668201446533
35931,4.166509628295898,-11.508927345275879,2.4863784313201904
35951,3.048417329788208,-10.733205795288086,1.279700756072998
35971,1.6382324695587158,-9.928754806518555,0.20709845423698425
35990,0.8649053573608398,-9.330204010009766,-0.27413609623908997
36010,0.5321113467216492,-9.375694274902344,0.0035913025494664907
36030,0.3381809890270233,-9.476250648498535,0.48482584953308105
36050,0.7475894689559937,-9.002198219299316,0.9923965930938721
36070,1.2647370100021362,-8.844181060791016,1.643619418144226
36090,1.8848352432250977,-8.576030731201172,1.5933412313461304
36109,2.32297420501709,-8.418013572692871,1.049857497215271
36129,2.6437971591949463,-8.592789649963379,0.5781996846199036
36149,1.8082208633422852,-8.688557624816895,0.08978256583213806
36169,1.27191960811615,-8.56884765625,-0.02992752194404602
36189,1.8656816482543945,-8.980650901794434,-0.3579331636428833
36209,2.943072557449341,-9.2033109664917,-1.2701239585876465
36228,3.8145618438720703,-8.71489429473877,-0.7697358727455139
36248,4.408323764801025,-9.591172218322754,0.5111620426177979
36268,3.7475242614746094,-11.477803230285645,0.3794809579849243
36288,2.4857800006866455,-11.475408554077148,-0.16160862147808075
36308,1.8297686576843262,-11.520898818969727,-0.41539400815963745
36327,,-12.121843338012695,
36328,2.3062148094177246,,-0.1951274424791336
36347,2.9478609561920166,-12.864046096801758,-0.34596213698387146
36367,1.5783774852752686,-12.33013916015625,-0.3818751573562622
36387,-0.05446808785200119,-10.718840599060059,-0.5374982953071594
36407,-0.6697779297828674,-9.976638793945312,0.7793126702308655
36427,-0.45429977774620056,-10.953473091125488,1.6268600225448608
36446,-0.6937199234962463,-12.94066047668457,1.6603789329528809
36466,-1.809417963027954,-13.939042091369629,0.9660604000091553
36486,-2.429516077041626,-14.889540672302246,1.2533645629882812
36506,-1.6944962739944458,-14.839262008666992,0.812831461429596
36526,-0.0999579206109047,-12.641385078430176,0.29568392038345337
36546,1.2407950162887573,-10.702081680297852,0.4082113802433014
36565,,-9.478644371032715,
36566,1.7507599592208862,,1.291671872138977
36585,1.3365631103515625,-8.415618896484375,0.25498247146606445
36605,0.7236474752426147,-7.848193168640137,-0.1496376097202301
36625,0.4770447015762329,-6.8809356689453125,-0.15442600846290588
36645,0.02454056777060032,-5.612008571624756,0.03232172131538391
36665,-0.2795230448246002,-4.548983097076416,0.010773907415568829
36685,-0.3082534670829773,-3.8091750144958496,-0.2932897210121155
36704,-0.45429977774620056,-3.4572272300720215,-0.9301473498344421
36724,-0.578798234462738,-3.773261785507202,-1.7753005027770996
36744,-0.0065840547904372215,-4.912901878356934,-3.137601375579834
36764,1.202487826347351,-7.347805023193359,-4.665102005004883
36784,2.3756465911865234,-11.51850414276123,-6.585251808166504
36804,1.2647370100021362,-14.810531616210938,-9.925163269042969
36823,-0.6147112846374512,-13.014880180358887,-11.196484565734863
36843,-0.801459014415741,-8.769960403442383,-6.53257942199707
36863,-1.835754156112671,-7.936778545379639,-2.958036184310913
36883,-2.609081268310547,-9.641449928283691,-0.39863458275794983
36902,,-12.777854919433594,
36903,-0.9570821523666382,,1.016338586807251
36922,1.2360066175460815,-14.358027458190918,4.045003890991211
36942,2.279878616333008,-13.273454666137695,2.713827610015869
36962,1.8010382652282715,-10.647014617919922,2.1799206733703613
36982,1.3341689109802246,-7.632715225219727,2.45285964012146
37002,1.9183541536331177,-7.738059997558594,2.3499090671539307
37022,3.862445831298828,-9.564835548400879,3.293224334716797
37041,4.310161590576172,-10.740388870239258,3.118447780609131
37062,2.7515363693237305,-10.417171478271484,1.2749123573303223
37081,1.2407950162887573,-9.799467086791992,-0.13048399984836578
37101,0.6254851818084717,-9.126696586608887,-0.0802057534456253
37121,0.23762452602386475,-8.827422142028809,0.4129997789859772
37140,,-8.83699893951416,
37141,0.436343252658844,,1.1623848676681519
37160,1.2288240194320679,-9.165003776550293,1.3778630495071411
37180,2.318185806274414,-9.516951560974121,0.6619967818260193
37200,3.1848866939544678,-9.17936897277832,0.20231004059314728
37220,3.5655648708343506,-9.081207275390625,0.18076223134994507
37240,2.943072557449341,-9.057265281677246,0.1472434103488922
37259,1.9949685335159302,-9.63187313079834,-0.30286651849746704
37279,1.6478092670440674,-10.122684478759766,-0.9085995554924011
37299,1.7172411680221558,-10.007762908935547,-2.270900249481201
37319,2.454655408859253,-9.121908187866211,-1.5598224401474
37339,2.8784289360046387,-9.90241813659668,0.8822633028030396
37359,2.7060465812683105,-10.869675636291504,0.7410054206848145
37378,,-10.201693534851074,
37379,2.5576059818267822,,0.07541735470294952
37398,2.5025393962860107,-10.24000072479248,0.1759738177061081
37418,3.0771477222442627,-10.735600471496582,0.12090718746185303
37438,4.137779235839844,-11.75792407989502,-0.43694180250167847
37458,3.5057098865509033,-12.9741792678833,-1.0115501880645752
37478,1.1354501247406006,-12.162544250488281,-1.1192892789840698
37497,-0.5237316489219666,-10.046070098876953,-0.243011474609375
37517,-1.0456676483154297,-8.793902397155762,1.1982979774475098
37537,-0.9642647504806519,-10.409989356994629,1.6603789329528809
37557,-1.0720038414001465,-12.835315704345703,1.459265947341919
37577,-1.0241197347640991,-14.513650894165039,0.7529764175415039
37597,-0.3345896899700165,-15.421052932739258,0.7146692276000977
37616,,-13.919888496398926,
37617,0.14664486050605774,,0.1735796183347702
37636,0.8696937561035156,-11.338939666748047,0.3172317147254944
37656,1.1402385234832764,-9.904812812805176,0.8918401598930359
37676,1.14742112159729,-9.119514465332031,0.8463503122329712
37696,1.0205284357070923,-8.56645393371582,-0.015562310814857483
37715,0.8170213103294373,-8.078036308288574,-0.1951274424791336
37735,0.436343252658844,-7.156269073486328,-0.3770867586135864
37755,-0.22924481332302094,-6.057330131530762,-0.22625206410884857
37775,-0.5740098357200623,-4.9799394607543945,-0.3387795388698578
37795,-0.41120412945747375,-4.273650169372559,-0.8367735147476196
37815,-0.4902127981185913,-4.120420932769775,-1.456871747970581
37835,-0.6218938827514648,-4.99669885635376,-2.4241292476654053
37854,0.2064998894929886,-6.270414352416992,-4.212597846984863
37874,1.6525976657867432,-8.7484130859375,-6.350619792938232
37894,2.5145103931427,-11.875240325927734,-7.669825077056885
37914,0.7284358739852905,-12.739546775817871,-8.541314125061035
37934,-1.0193313360214233,-11.374852180480957,-7.116764545440674
37954,-1.0648212432861328,-9.220070838928223,-4.037821292877197
37973,-1.6825252771377563,-8.099584579467773,-3.537432909011841
37993,-0.7966706156730652,-10.110713958740234,-2.1775264739990234
38013,-0.1454477459192276,-13.062764167785645,-0.45848962664604187
38033,,-13.105859756469727,
38035,1.5352818965911865,,2.826355218887329
38053,2.7012581825256348,-10.596736907958984,2.2469582557678223
38072,,-9.780313491821289,
38073,2.1912930011749268,,2.3953988552093506
38092,1.2814964056015015,-8.59997272491455,1.6531962156295776
38112,1.7459715604782104,-8.08043098449707,1.1312602758407593
38132,3.29502010345459,-9.275136947631836,
38134,,,2.0889410972595215
38152,3.4961330890655518,-10.500968933105469,2.6396074295043945
38172,2.186504602432251,-10.620678901672363,1.2270283699035645
38192,1.3988122940063477,-10.050858497619629,0.11133038252592087
38211,0.9798270463943481,-9.217676162719727,-0.5111620426177979
38231,,-8.801085472106934,
38233,0.536899745464325,,-0.5614402890205383
38251,0.3932476341724396,-8.844181060791016,-0.02992752194404602
38271,0.8122329115867615,-9.074024200439453,0.5542576909065247
38291,1.4419080018997192,-9.217676162719727,1.1336544752120972
38311,1.9901801347732544,-9.253589630126953,1.1073182821273804
38330,,-9.27034854888916,
38332,2.255936622619629,,0.7721300721168518
38350,,-9.29189682006836,
38351,2.0931308269500732,,0.1759738177061081
38370,1.4179660081863403,-9.399636268615723,-0.3531447649002075
38390,1.0684125423431396,-9.86650562286377,-1.1288660764694214
38410,1.8201918601989746,-9.744400978088379,-1.5909470319747925
38431,2.9981391429901123,-9.215282440185547,-0.39624038338661194
38450,3.20404052734375,-10.20887565612793,0.6883329749107361
38469,2.6605565547943115,-10.78587818145752,0.11611878126859665
38489,2.5743653774261475,-10.457873344421387,-0.24779987335205078
38509,3.4985272884368896,-10.594342231750488,0.1280897855758667
38530,4.856039524078369,-11.461043357849121,0.1280897855758667
38549,4.688445568084717,-12.593501091003418,-1.1743559837341309
38568,2.1936872005462646,-13.10107135772705,-1.5191209316253662
38588,-0.6745663285255432,-11.535264015197754,-0.8343793153762817
38608,-1.1342530250549316,-9.983820915222168,-0.2669534981250763
38629,-0.5907692909240723,-8.899248123168945,0.5901707410812378
38648,-0.10235211998224258,-9.66299819946289,1.7298107147216797
38669,-0.09038111567497253,-12.050017356872559,1.844732403755188
38768,-0.5069721937179565,-13.979743957519531,0.8822633028030396
38821,1.5017629861831665,-8.9064302444458,0.6332663297653198
38888,1.0301052331924438,-8.429984092712402,-0.34356793761253357
38986,-0.7080851793289185,-5.142745018005371,
38987,,,-1.2294225692749023
39086,2.610278367996216,-11.367670059204102,-5.768828868865967
39185,1.4036006927490234,-7.802703380584717,
39186,,,-2.0649988651275635
39220,0.4339490532875061,-5.552153587341309,1.7609353065490723
39304,0.5105634927749634,-7.285555839538574,1.4616601467132568
39403,0.3166331648826599,-9.334992408752441,0.4345476031303406
39502,1.614290475845337,-9.612719535827637,0.8702923059463501
39533,,-9.612719535827637,
39534,1.4850035905838013,,-0.19273324310779572
39621,1.856104850769043,-9.749189376831055,-0.7242460250854492
39720,3.4865562915802,-10.342951774597168,0.2454056739807129
39753,,-10.26394271850586,
39754,1.1641805171966553,,-0.6763619780540466
39839,-0.45908817648887634,-9.938331604003906,0.4034229815006256
39938,,-14.362815856933594,
39939,0.6949170231819153,,-0.4297592043876648
40037,,-7.891288757324219,
40038,-0.2148796021938324,,-0.16160862147808075
40136,,-4.819528102874756,
40137,0.053270988166332245,-5.214571475982666,-1.6172832250595093
40236,1.8082208633422852,-13.148955345153809,-6.9922661781311035
40287,,-10.828974723815918,
40288,1.0875661373138428,,-0.36990416049957275
40355,1.3078327178955078,-11.942277908325195,4.083311080932617
40454,1.547252893447876,-8.868123054504395,1.4209587574005127
40487,1.4443022012710571,-9.078812599182129,1.1432312726974487
40525,1.4514847993850708,-9.835380554199219,1.1312602758407593
40554,1.547252893447876,-10.139444351196289,1.3515268564224243
40621,,-8.966285705566406,
40622,1.5185223817825317,,0.8535329103469849
40688,1.4850035905838013,-8.980650901794434,0.9493009448051453
40771,,-9.390059471130371,
40772,2.057217836380005,-9.071630477905273,-0.41778820753097534
40870,2.054823637008667,-10.153809547424316,0.6236895322799683
40969,,-11.221623420715332,
40970,-0.6673837304115295,-9.165003776550293,-0.9756371974945068
41021,-0.03770867735147476,-14.31014347076416,0.8607155084609985
41088,1.3102269172668457,-13.804966926574707,-0.4225766062736511
41168,0.4291606545448303,-9.41639518737793,-0.03232172131538391
41222,0.618302583694458,-4.548983097076416,-1.1767501831054688
41223,,,-1.701080322265625
41306,,-4.541800498962402,
41307,0.8553285598754883,,-2.831143617630005
41406,0.7044938206672668,-10.54406452178955,-5.905298709869385
41505,-0.8421604633331299,-10.230423927307129,-2.8167781829833984
41555,-0.4231751561164856,-6.971915245056152,1.037886381149292
41621,2.4833858013153076,-8.767566680908203,2.036268472671509
41703,2.4642322063446045,-10.33098030090332,1.2725181579589844
41740,0.536899745464325,-9.682151794433594,0.767341673374176
41742,1.3317747116088867,-9.617507934570312,0.6883329749107361
41761,1.9375077486038208,-9.641449928283691,0.6165069341659546
41781,2.1481974124908447,-9.48343276977539,0.6428431272506714
41801,1.810615062713623,-9.227252960205078,0.456095427274704
41821,1.1713632345199585,-9.0859956741333,0.20709845423698425
41841,,-9.167398452758789,
41861,0.3932476341724396,-9.244012832641602,0.16160862147808075
41880,,-9.495404243469238,
41881,0.5560533404350281,,0.42018240690231323
41900,0.9103952050209045,-9.5408935546875,0.5303156971931458
41920,1.4562731981277466,-9.569623947143555,0.9421183466911316
41940,1.8920178413391113,-9.828198432922363,1.294066071510315
41959,,-9.569623947143555,
41960,2.2607250213623047,,1.2677297592163086
41979,2.6007015705108643,-9.220070838928223,0.7864952683448792
41999,3.247136116027832,-9.825803756713867,0.4704606235027313
42019,,-10.771512985229492,
42020,4.453813552856445,,0.41539400815963745
42039,5.701192855834961,-11.841721534729004,0.6931213736534119
42059,5.662885665893555,-12.876016616821289,0.3603273630142212
42079,3.819350242614746,-12.96460247039795,-0.22625206410884857
42098,0.5033808946609497,-12.60547161102295,-0.7936778664588928
42118,-1.5963339805603027,-11.05642318725586,-0.18076223134994507
42138,-2.058414936065674,-9.141061782836914,0.37229835987091064
42158,-1.1414356231689453,-7.960720539093018,1.1815385818481445
42178,0.25917232036590576,-8.157045364379883,1.698686122894287
42199,1.6837223768234253,-10.158597946166992,1.6364368200302124
42217,2.2224178314208984,-11.903970718383789,0.9636662006378174
42237,2.390011787414551,-13.182474136352539,0.18794482946395874
42257,2.6581623554229736,-11.590330123901367,0.6165069341659546
42277,2.911947727203369,-11.037269592285156,1.1336544752120972
42297,2.93349552154541,-10.41956615447998,1.3443442583084106
42316,,-10.424354553222656,
42317,2.3038206100463867,,0.8559271097183228
42336,1.911171555519104,-10.805032730102539,
42337,,,0.3387795388698578
42356,1.7244237661361694,-10.54645824432373,-0.11133038252592087
42376,1.427542805671692,-9.653421401977539,-0.4776432514190674
42396,1.202487826347351,-8.485051155090332,-0.37469255924224854
42416,1.025316834449768,-7.580042362213135,-0.5039794445037842
42436,0.7954735159873962,-7.232883453369141,-0.8798691034317017
42455,0.4602852761745453,-6.732495307922363,
42456,,,-1.1408370733261108
42475,0.09397241473197937,-6.3518171310424805,-1.502361536026001
42495,0.14185644686222076,-6.433219909667969,-2.584540843963623
42515,0.7882909178733826,-6.72531270980835,-3.3435027599334717
42535,2.188898801803589,-7.920019149780273,-4.145560264587402
42554,,-8.456320762634277,
42555,2.983773946762085,,-4.739322185516357
42574,2.5049335956573486,-9.124302864074707,-4.820724964141846
42594,2.2439656257629395,-9.519346237182617,-3.602076530456543
42614,1.5304933786392212,-9.390059471130371,-3.5182793140411377
42634,0.5680243372917175,-10.067618370056152,-3.463212728500366
42654,-0.3082534670829773,-10.453084945678711,-1.456871747970581
42673,,-9.639056205749512,
42674,-0.9163807034492493,,2.517503023147583
42693,-2.4917654991149902,-9.940725326538086,
42694,,,2.8431146144866943
42713,-2.0464439392089844,-12.251130104064941,0.8271966576576233
42733,0.42437225580215454,-14.168885231018066,-0.4776432514190674
42753,2.8137855529785156,-12.660538673400879,-1.0905588865280151
42773,2.8353333473205566,-9.361329078674316,0.25977087020874023
42793,1.710058569908142,-7.445967197418213,-0.4273650050163269
42812,1.6980875730514526,-7.905653953552246,-1.013944387435913
42832,2.4211363792419434,-9.44752025604248,-0.4944026470184326
42852,2.670133352279663,-10.83855152130127,-0.19273324310779572
42872,2.050035238265991,-11.008539199829102,-0.14484919607639313
42892,1.3796586990356445,-9.921571731567383,-0.43694180250167847
42911,,-9.131484985351562,
42912,1.5855600833892822,,-0.5734112858772278
42931,1.6071078777313232,-9.406818389892578,-0.48722004890441895
42951,1.391629695892334,-9.84256362915039,-0.3842693865299225
42971,1.2791022062301636,-9.648633003234863,-0.243011474609375
42991,1.3317747116088867,-9.344569206237793,0.11133038252592087
43010,,-9.217676162719727,
43011,1.4826093912124634,,0.39384618401527405
43030,1.8082208633422852,-9.279925346374512,0.6404489278793335
43050,1.9255367517471313,-9.639056205749512,0.788889467716217
43070,1.6262614727020264,-9.801861763000488,0.6859387755393982
43090,1.5951368808746338,-9.548076629638672,0.4967968463897705
43110,1.6956933736801147,-9.583989143371582,0.43933600187301636
43130,1.8632874488830566,-9.670180320739746,0.6021417379379272
43149,,-9.880870819091797,
43150,1.9303251504898071,,0.6931213736534119
43169,1.9614497423171997,-10.010157585144043,0.6260837316513062
43189,1.9015947580337524,-9.864110946655273,0.5327098965644836
43209,1.6573861837387085,-9.830592155456543,0.36750996112823486
43229,1.5209165811538696,-9.926360130310059,0.28371289372444153
43249,1.3581109046936035,-10.369287490844727,0.5638344883918762
43269,1.1426327228546143,-11.281478881835938,
43271,,,0.38905778527259827
43288,1.367687702178955,-11.70046329498291,-0.5327098965644836
43308,1.6645687818527222,-11.331756591796875,-1.7729063034057617
43328,2.3110032081604004,-10.955866813659668,-2.1057004928588867
43348,3.599083662033081,-10.819397926330566,-0.9469067454338074
43367,3.6541502475738525,-10.81700325012207,-0.7625532150268555
43387,2.8808231353759766,-10.007762908935547,
43388,,,-0.3627215623855591
43407,3.5416228771209717,-10.168174743652344,1.5981296300888062
43427,4.8488569259643555,-10.781089782714844,2.7928361892700195
43447,5.385158061981201,-11.413159370422363,2.962824583053589
43467,5.196016311645508,-12.356474876403809,1.866280198097229
43487,3.912724018096924,-12.832921028137207,0.6619967818260193
43506,2.0715830326080322,-11.920730590820312,
43507,,,0.03232172131538391
43526,1.5424644947052002,-10.936713218688965,0.08738835901021957
43547,1.877652645111084,-10.824186325073242,-0.20231004059314728
43566,2.852092742919922,-10.778696060180664,-0.36750996112823486
43586,3.6349966526031494,-10.182539939880371,-0.6931213736534119
43606,3.7283706665039062,-9.160215377807617,-0.7146692276000977
43625,2.3924059867858887,-8.188169479370117,-0.46567222476005554
43645,0.7547720670700073,-7.620744228363037,
43646,,,-0.13048399984836578
43665,,-7.0317702293396,
43666,-0.5979518890380859,,-0.017956512048840523
43685,-1.4311341047286987,-6.016628742218018,-0.5662286877632141
43705,-1.2850877046585083,-5.683835029602051,-1.48081374168396
43725,-0.3705027103424072,-5.980715751647949,-1.8758569955825806
43744,0.3932476341724396,-6.3302693367004395,-2.1296424865722656
43766,1.1976994276046753,-6.378153324127197,-2.7952303886413574
43785,2.4450783729553223,-7.137115478515625,-3.5039141178131104
43804,3.0364463329315186,-9.251194953918457,-4.025850296020508
43824,2.629431962966919,-11.240777015686035,-4.81593656539917
43844,1.79146146774292,-10.955866813659668,-4.322731018066406
43865,1.9015947580337524,-9.706093788146973,-3.02986216545105
43883,2.7036523818969727,-11.465831756591797,-0.6212953329086304
43903,2.2200236320495605,-13.421895027160645,1.1025298833847046
43923,1.5352818965911865,-10.90558910369873,-0.7721300721168518
43943,1.5376760959625244,-9.165003776550293,-2.2637176513671875
43963,1.106719732284546,-8.17380428314209,0.3100491166114807
43982,,-7.527369976043701,
43983,0.07003039866685867,,0.22864626348018646
44002,0.6637924313545227,-8.315062522888184,0.5662286877632141
44022,1.63344407081604,-10.5344877243042,0.9684545993804932
44042,1.9039889574050903,-11.63342571258545,1.157596468925476
44063,1.6813281774520874,-10.611102104187012,0.8319851160049438
44082,1.3437457084655762,-9.57201862335205,0.03232172131538391
44101,1.0516531467437744,-9.440337181091309,-0.1496376097202301
44121,0.8864531517028809,-9.81143856048584,-0.23822307586669922
44141,1.1091139316558838,-9.892841339111328,0.02513911761343479
44162,1.326986312866211,-9.682151794433594,0.5398924946784973
44181,1.5975310802459717,-9.68694019317627,1.1623848676681519
44201,1.5352818965911865,-9.720458984375,1.3251906633377075
44220,1.0755951404571533,-9.552865028381348,
44221,,,1.2318167686462402
44240,0.44352585077285767,-9.29189682006836,1.0067617893218994
44261,0.14903905987739563,-9.30386734008789,1.0235211849212646
44280,0.383670836687088,-9.368511199951172,0.9014169573783875
44300,0.8984242081642151,-9.27034854888916,0.7098808288574219
44320,1.427542805671692,-9.294290542602539,0.4513070285320282
44339,1.9518729448318481,-9.3828763961792,0.3363853394985199
44360,2.1697452068328857,-9.66299819946289,0.6356605291366577
44379,2.387617588043213,-10.177751541137695,0.9397241473197937
44399,2.6437971591949463,-10.3549222946167,0.889445960521698
44419,3.005321741104126,-10.503362655639648,0.7960720658302307
44438,3.73555326461792,-11.456254959106445,1.157596468925476
44459,4.032433986663818,-12.617443084716797,1.1432312726974487
44478,2.2391772270202637,-13.474567413330078,-1.1528080701828003
44498,-0.48303020000457764,-12.310985565185547,-2.4025814533233643
44518,-0.0975637212395668,-10.436325073242188,-0.5374982953071594
44537,0.5943605899810791,-9.473855972290039,
44538,,,0.4776432514190674
44559,0.4626794755458832,-8.738836288452148,1.238999366760254
44577,-0.05446808785200119,-9.277531623840332,
44578,,,1.7202339172363281
44597,,-11.532869338989258,
44598,-0.4734533727169037,,1.07379949092865
44617,0.10833762586116791,-14.032416343688965,1.1839327812194824
44637,0.7523778676986694,-14.985308647155762,0.5183446407318115
44658,0.9870096445083618,-13.06515884399414,0.39384618401527405
44676,,-11.233593940734863,
44677,0.5991489887237549,,0.6165069341659546
44696,,-10.472238540649414,
44697,0.28311434388160706,,1.0785878896713257
44716,0.5249287486076355,-9.919178009033203,0.5805938839912415
44736,0.4124012291431427,-9.263166427612305,-0.09457096457481384
44757,0.7236474752426147,-8.667010307312012,-0.46567222476005554
44776,0.6422445774078369,-7.513004779815674,-0.7433996200561523
44795,,-6.289567947387695,
44796,0.17537526786327362,,-0.6524199843406677
44815,0.09397241473197937,-5.0876784324646,-0.8080430626869202
44835,0.17537526786327362,-4.062960147857666,-1.1192892789840698
44856,0.03890577703714371,-3.756502389907837,-1.6699557304382324
44875,0.04369417950510979,-4.127603530883789,-2.412158250808716
44895,0.7212532758712769,-4.587290287017822,-3.776853084564209
44914,,-6.222530364990234,
44915,2.1553800106048584,,-6.034585475921631
44934,3.661332845687866,-9.464279174804688,-7.150283336639404
44955,3.287837505340576,-13.206416130065918,-6.860584735870361
44974,0.8146271109580994,-14.470555305480957,-6.889315605163574
44994,-0.8062474131584167,-13.053187370300293,-5.160701751708984
45014,-1.4502876996994019,-13.409923553466797,-5.021838188171387
45033,-0.41359832882881165,-13.838485717773438,-3.3530795574188232
45053,1.3437457084655762,-9.27034854888916,0.8152256608009338
45073,0.8361749649047852,-6.469132900238037,2.5989060401916504
45093,0.20889410376548767,-7.826645374298096,-0.23822307586669922
45113,2.607884168624878,-9.153033256530762,1.2318167686462402
45133,4.063559055328369,-9.040505409240723,2.7449522018432617
45153,,-9.107542991638184,
45154,2.7491421699523926,,
45172,1.4514847993850708,-9.581595420837402,0.9612720012664795
45193,,-9.962273597717285,
45194,1.7148469686508179,,0.23104046285152435
45293,1.4850035905838013,-9.785101890563965,0.21428105235099792
45377,,-9.514557838439941,
45378,1.4610615968704224,,1.0881646871566772
45444,,-9.473855972290039,
45445,1.4634557962417603,,0.4752490520477295
45511,1.7507599592208862,-9.813833236694336,-0.333991140127182
45610,3.067570924758911,-9.667786598205566,0.3124433159828186
45709,,-12.521675109863281,
45710,3.316567897796631,,-1.035492181777954
45808,,-12.97657299041748,
45809,-1.6226701736450195,,1.8040310144424438
45843,0.4818331003189087,-9.074024200439453,0.851138710975647
45910,0.2974795699119568,-9.042900085449219,0.5542576909065247
45977,-0.43754035234451294,-6.13633918762207,-0.20231004059314728
46047,-0.03292027488350868,-4.156333923339844,-1.2557587623596191
46146,3.912724018096924,-12.085929870605469,-7.384915351867676
46244,-3.1741127967834473,-8.87051773071289,-2.275688648223877
46324,3.0125043392181396,-6.811503887176514,3.400963544845581
46377,1.025316834449768,-10.625467300415039,1.171961784362793
46444,0.4866214990615845,-8.705317497253418,0.9038111567497253
46542,,-10.06043529510498,
46543,2.236783027648926,,2.699462413787842
46641,,-9.390059471130371,
46642,2.2200236320495605,-9.349357604980469,0.18076223134994507
46710,2.430713176727295,-9.397241592407227,0.23104046285152435
46711,,,0.48722004890441895
46777,2.9741971492767334,-10.362105369567871,0.18555063009262085
46859,,-11.927912712097168,
46860,0.4842272996902466,,-0.5279214978218079
46910,,-15.952566146850586,
46911,-0.29867666959762573,,1.2054805755615234
46977,0.2974795699119568,-12.868834495544434,-0.05147533491253853
47058,1.269525408744812,-9.006986618041992,0.5398924946784973
47110,-0.07122749835252762,-4.529829502105713,-1.0091559886932373
47177,0.42437225580215454,-4.458003520965576,-2.562992811203003
47276,2.5528175830841064,-7.539340972900391,-8.74721622467041
47310,-1.7232266664505005,-7.402871608734131,-4.423287868499756
47395,-0.9091981053352356,-10.879252433776855,-2.675520420074463
47494,2.9765913486480713,-7.3454108238220215,0.4800374507904053
47545,1.204882025718689,-8.884882926940918,-0.9588778018951416
47577,-0.10235211998224258,-9.260771751403809,-0.6212953329086304
47644,0.5632359385490417,-9.334992408752441,0.15921440720558167
47711,1.8465280532836914,-8.887276649475098,-0.13527239859104156
47791,1.3628993034362793,-9.27034854888916,-1.942894697189331
47846,1.5496470928192139,-10.237606048583984,-0.6739677786827087
47912,2.3253684043884277,-11.343728065490723,-0.8367735147476196
48010,2.253542423248291,-10.465055465698242,2.144007682800293
48011,,,0.7697358727455139
48045,3.199252128601074,-10.04846477508545,-0.05386953800916672
48129,2.6198551654815674,-8.935160636901855,1.0283095836639404
48228,3.0986955165863037,-8.437167167663574,-0.22864626348018646
48327,,-8.87291145324707,
48328,-0.12389993667602539,,-2.232593059539795
48377,,-5.781997203826904,
48378,7.628525257110596,,-2.852691411972046
48445,9.61331844329834,-6.0836663246154785,-1.2198457717895508
48446,-4.167706489562988,,-1.1432312726974487
48537,-2.494159698486328,-19.92694091796875,-5.258863925933838
48577,3.04602313041687,-8.815450668334961,3.913322687149048
48644,3.4817678928375244,-12.543222427368164,0.21428105235099792
48744,-1.8716671466827393,-9.68694019317627,0.8439561128616333
48777,1.1019313335418701,-9.481039047241211,0.8224082589149475
48844,0.5201402902603149,-9.816226959228516,0.9301473498344421
48911,1.913565754890442,-9.488221168518066,1.3084312677383423
48977,3.9390604496002197,-10.168174743652344,0.20231004059314728
49047,2.8808231353759766,-11.678915977478027,-0.22864626348018646
49110,-0.3944447338581085,-9.457097053527832,
49111,-0.15741875767707825,,1.2030863761901855
49177,,-15.030797958374023,
49178,-0.020949264988303185,,-0.27653029561042786
49259,,-11.113883972167969,
49260,-0.6242880821228027,,0.2885012924671173
49310,-0.0520738884806633,-6.732495307922363,-0.8966285586357117
49378,0.5871779918670654,-5.063736438751221,-1.0642226934432983
49379,0.46746787428855896,-4.2329487800598145,-2.9101521968841553
49477,,-4.692635536193848,
49478,0.8122329115867615,-9.531316757202148,-3.8558619022369385
49510,-0.5500678420066833,-12.229581832885742,-4.2509050369262695
49527,,-11.432312965393066,
49528,-2.8341362476348877,,-3.3650505542755127
49616,-3.822941541671753,-14.00607967376709,-4.746504783630371
49712,,-9.550470352172852,
49713,2.540846586227417,-10.60391902923584,2.716221809387207
49795,2.473809003829956,-9.406818389892578,0.23582886159420013
49844,1.1162965297698975,-9.57441234588623,0.424970805644989
49911,1.2192472219467163,-9.466673851013184,0.3148375153541565
49993,1.8249802589416504,-9.308655738830566,0.3794809579849243
50043,,-9.282320022583008,
50044,3.2375593185424805,-10.15141487121582,0.9780313968658447
50111,3.311779499053955,-9.921571731567383,-0.34835633635520935
50177,,-12.236764907836914,
50178,4.006097793579102,,-0.8990227580070496
50234,-2.7240030765533447,-10.139444351196289,1.1336544752120972
50249,1.4155718088150024,-14.070723533630371,0.5135562419891357
50269,1.6214730739593506,-13.7666597366333,-0.5973533391952515
50290,1.4945803880691528,-12.27507209777832,-0.06823474913835526
50309,1.14742112159729,-10.714052200317383,0.22625206410884857
50328,,-9.888052940368652,
50329,0.8026561141014099,,0.4704606235027313
50349,0.3693056106567383,-9.634267807006836,0.7793126702308655
50368,0.3429693877696991,-8.820239067077637,0.11851298063993454
50388,0.08918401598930359,-7.802703380584717,-0.29568392038345337
50408,-0.39205053448677063,-6.914454460144043,-0.29807811975479126
50428,-0.7344213724136353,-5.961562156677246,-0.09457096457481384
50447,-0.6266822814941406,-5.161899089813232,-0.20949265360832214
50467,-0.444722980260849,-4.651933670043945,-0.6117185354232788
50487,-0.5213374495506287,-4.592078685760498,-1.1336544752120972
50507,-0.3824737071990967,-5.166687488555908,-2.2373814582824707
50527,0.4339490532875061,-6.004657745361328,-4.092887878417969
50547,1.9470845460891724,-8.453926086425781,-6.5277910232543945
50567,3.230376720428467,-12.78264331817627,-7.47110652923584
50587,1.669357180595398,-15.205574989318848,-7.779958248138428
50606,-0.6985083222389221,-13.383587837219238,-6.764816761016846
50627,-1.2395979166030884,-11.597513198852539,
50628,,,-4.806359767913818
50646,-1.1941081285476685,-11.259930610656738,-4.013879299163818
50666,-0.2890998423099518,-10.663774490356445,-1.7345991134643555
50686,,-7.7763671875,
50687,1.3988122940063477,,1.9740192890167236
50705,,-7.522581577301025,
50706,1.8369512557983398,,1.095347285270691
50726,2.761113166809082,-9.29189682006836,0.6739677786827087
50745,3.180098295211792,-9.81143856048584,1.9907786846160889
50765,2.4833858013153076,-9.351752281188965,0.6572083830833435
50786,2.0236990451812744,-9.457097053527832,1.1863269805908203
50805,2.1098902225494385,-9.430760383605957,1.622071623802185
50824,2.081159830093384,-9.864110946655273,2.122459888458252
50844,,-10.338163375854492,
50845,1.3652935028076172,,1.7369933128356934
50864,0.9151836037635803,-10.309432983398438,1.1504138708114624
50884,0.8457517623901367,-9.835380554199219,0.767341673374176
50904,0.9702502489089966,-9.488221168518066,0.9373299479484558
50924,1.1210849285125732,-9.232041358947754,1.2892776727676392
50943,1.3628993034362793,-9.332598686218262,1.3898340463638306
50963,1.7507599592208862,-9.785101890563965,1.157596468925476
50984,2.3971943855285645,-10.29746150970459,0.7481880187988281
51003,2.7252001762390137,-9.797073364257812,0.3363853394985199
51023,1.8800468444824219,-8.951920509338379,0.23343466222286224
51043,0.6733692288398743,-9.181763648986816,-0.04668693244457245
51062,0.41718965768814087,-9.75397777557373,-0.50876784324646
51082,1.061229944229126,-10.17296314239502,-1.1192892789840698
51102,2.6174609661102295,-9.387664794921875,-1.5263035297393799
51122,4.350862979888916,-8.38449478149414,-0.1735796183347702
51142,5.030816555023193,-9.129091262817383,0.7362170219421387
51162,4.0994720458984375,-9.600749015808105,-0.08499415963888168
51182,2.674921751022339,-9.385271072387695,-0.48482584953308105
51201,2.0452468395233154,-10.27591323852539,-0.6380547285079956
51221,3.069965124130249,-11.75553035736084,-0.5614402890205383
51241,4.144961833953857,-13.127408027648926,-0.32441434264183044
51260,2.5025393962860107,-12.406753540039062,
51261,,,-1.823184609413147
51281,,-10.620678901672363,
51282,-0.3561375141143799,,-1.236605167388916
51300,-1.5771803855895996,-9.701305389404297,0.3315969407558441
51320,-1.3640964031219482,-10.63504409790039,1.3539210557937622
51340,-0.3489548861980438,-12.085929870605469,1.7561469078063965
51360,0.7523778676986694,-13.397953033447266,1.1408370733261108
51380,1.1522095203399658,-14.923059463500977,0.04189852997660637
51399,,-13.381193161010742,
51400,1.1522095203399658,,-0.3100491166114807
51419,0.960673451423645,-11.432312965393066,
51420,,,0.008379706181585789
51439,0.900818407535553,-10.333374977111816,0.37229835987091064
51459,0.5297171473503113,-10.007762908935547,0.5734112858772278
51479,,-9.734824180603027,
51480,0.6637924313545227,,0.15442600846290588
51499,0.46986207365989685,-8.734047889709473,-0.38905778527259827
51518,,-8.092401504516602,
51519,0.1825578808784485,,-0.5303156971931458
51538,0.21607670187950134,-7.0988078117370605,-0.34356793761253357
51558,0.12988543510437012,-5.841852188110352,-0.2621650993824005
51579,-0.04249707981944084,-4.656722068786621,-0.7098808288574219
51598,-0.11432313174009323,-4.225766181945801,-1.1863269805908203
51618,0.14664486050605774,-4.546588897705078,-2.1272482872009277
51638,1.1593921184539795,-5.128379821777344,-3.4344823360443115
51657,2.0165164470672607,-7.5201873779296875,-4.906916618347168
51677,1.7866730690002441,-11.882423400878906,-6.925228595733643
51697,0.03890577703714371,-14.664484977722168,-8.098387718200684
51717,-0.7368155717849731,-11.389217376708984,-7.1023993492126465
51737,-0.3561375141143799,-8.796297073364258,-5.838260650634766
51756,,-9.567230224609375,
51757,0.5464765429496765,,-3.1759085655212402
51776,,-10.797849655151367,
51777,1.2958617210388184,,0.5303156971931458
51796,0.9965864419937134,-11.106701850891113,4.981136798858643
51816,-0.06883329898118973,-10.797849655151367,1.3299790620803833
51836,1.3437457084655762,-11.075576782226562,0.973242998123169
51856,1.8393454551696777,-9.394847869873047,1.047463297843933
51876,2.0452468395233154,-8.822632789611816,1.138442873954773
51895,2.801814556121826,-9.344569206237793,2.1296424865722656
51915,2.8856115341186523,-10.02691650390625,2.141613483428955
51935,2.7036523818969727,-10.345345497131348,1.4233529567718506
51955,2.4163479804992676,-10.225635528564453,0.7577648162841797
51975,1.66696298122406,-9.823410034179688,0.09457096457481384
51995,0.7236474752426147,-9.586383819580078,-0.017956512048840523
52014,0.4339490532875061,-9.703699111938477,
52034,0.9199720025062561,-9.6989107131958,0.9181763529777527
52054,1.3796586990356445,-9.531316757202148,1.0594342947006226
52074,1.975814938545227,-9.653421401977539,0.7026981711387634
52094,2.4019827842712402,-9.84495735168457,0.23582886159420013
