abs_time,relative_time,AccX,AccY,AccZ
1970-01-01 00:00:30.000,30062.333333333332,-3.6864720582962036,-15.574281692504883,1.934913953145345
1970-01-01 00:00:30.100,30175.0,-10.119691848754885,-18.58379364013672,-2.582146644592285
1970-01-01 00:00:30.200,30262.333333333332,-4.058770537376404,-5.293579936027527,1.48081374168396
1970-01-01 00:00:30.300,30372.0,-1.7830817699432373,1.1252747774124146,2.98437237739563
1970-01-01 00:00:30.400,30440.0,-1.2036849160989125,-10.599130868911743,-4.0150763392448425
1970-01-01 00:00:30.500,30551.0,-3.4398694038391118,-4.867412090301514,-7.756016254425049
1970-01-01 00:00:30.600,30618.0,-7.325658798217773,-24.92124557495117,-4.327519416809082
1970-01-01 00:00:30.700,30729.5,-1.367687702178955,-7.4986395835876465,2.2828712314367294
1970-01-01 00:00:30.800,30824.0,-2.095525026321411,-6.919242858886719,-1.0007762908935547
1970-01-01 00:00:30.900,30927.0,-0.8325836658477783,-6.514622688293457,-1.8997989892959597
1970-01-01 00:00:31.000,31040.0,-0.2595713635285695,-8.151059627532959,-1.654393315315247
1970-01-01 00:00:31.100,31151.0,-7.933785915374756,-18.81363677978516,-3.044227361679077
1970-01-01 00:00:31.200,31251.0,-3.6170401573181152,-13.708001613616943,-0.408211350440979
1970-01-01 00:00:31.300,31352.0,-2.8365304470062256,-0.0837970599532127,2.850297212600708
1970-01-01 00:00:31.400,31457.0,-1.371279001235962,-9.63905644416809,-4.547786176204681
1970-01-01 00:00:31.500,31551.0,-4.189254283905029,-7.599195957183838,-6.0417680740356445
1970-01-01 00:00:31.600,31640.5,-10.122086524963379,-12.18409252166748,-4.538209438323975
1970-01-01 00:00:31.700,31740.0,3.1896753311157227,-3.7158010005950928,9.510966300964355
1970-01-01 00:00:31.800,31852.0,-3.773860454559326,-6.800729990005493,-0.5770025998353958
1970-01-01 00:00:31.900,31952.0,0.4842272996902466,-4.611232280731201,-0.889445960521698
1970-01-01 00:00:32.000,32051.5,-0.2148796021938325,-9.21169114112854,0.8008604645729065
1970-01-01 00:00:32.100,32176.0,-3.825335741043091,-8.71489429473877,-2.3977930545806885
1970-01-01 00:00:32.200,32274.5,-6.201581001281738,-19.23741149902344,0.3315969407558441
1970-01-01 00:00:32.300,32351.0,-6.083067893981934,-9.287108421325684,0.1951274424791336
1970-01-01 00:00:32.400,32462.333333333332,-1.5540363788604736,-2.9771898984909058,-0.0754173547029495
1970-01-01 00:00:32.500,32551.0,-2.4917654991149902,-1.4413094520568848,-1.1767501831054688
1970-01-01 00:00:32.600,32618.0,-1.955464243888855,-6.452373504638672,-4.480748653411865
1970-01-01 00:00:32.700,32711.0,-10.18912410736084,-8.877699851989746,-7.9643120765686035
1970-01-01 00:00:32.800,32847.5,-4.717175722122192,-7.782352685928346,-4.535815238952637
1970-01-01 00:00:32.900,32952.0,-5.14932918548584,-19.359514236450195,-0.7769184708595276
1970-01-01 00:00:33.000,33051.5,-3.7391444742679596,-7.14310097694397,-2.3666683435440063
1970-01-01 00:00:33.100,33151.5,-2.3026235103607178,-7.228095054626465,-4.461595058441162
1970-01-01 00:00:33.200,33251.5,-1.9015946984291077,-7.551312208175659,-1.398213803768158
1970-01-01 00:00:33.300,33351.0,1.391629695892334,-9.619902610778809,0.7410054206848145
1970-01-01 00:00:33.400,33431.333333333336,-1.6633716225624084,-8.099584341049194,-0.7601590156555176
1970-01-01 00:00:33.500,33542.2,-3.5385104179382325,-16.520949363708496,1.272039395570755
1970-01-01 00:00:33.600,33645.0,-3.205237555503845,-16.317442321777342,1.3582306027412414
1970-01-01 00:00:33.700,33740.4,-2.3481132984161377,-7.755776977539062,2.1660342693328856
1970-01-01 00:00:33.800,33844.75,-2.4442803859710693,-1.8810444672902424,1.4580688150599599
1970-01-01 00:00:33.900,33958.57142857143,-2.1671116828918455,-4.183149266242981,-5.238274049758911
1970-01-01 00:00:34.000,34064.666666666664,-8.330744552612305,-11.28578815460205,-8.39478931427002
1970-01-01 00:00:34.100,34150.5,-0.0870292156934738,-18.19162311553955,6.038894891738892
1970-01-01 00:00:34.200,34256.0,-3.917751908302307,-7.969339847564697,0.7984662294387819
1970-01-01 00:00:34.300,34355.2,-4.267305374145508,-9.102754878997803,-4.674199867248535
1970-01-01 00:00:34.400,34451.0,-0.597951865196228,-9.178890609741211,1.0321403607726096
1970-01-01 00:00:34.500,34553.2,-4.00011248588562,-8.150341510772705,0.41683051814325156
1970-01-01 00:00:34.600,34652.6,-2.3016658544540407,-10.431057739257813,1.8145655021071434
1970-01-01 00:00:34.700,34758.5,-0.9939529418945312,-13.972561073303222,1.1087547898292542
1970-01-01 00:00:34.800,34851.0,-4.354454219341278,-11.749784088134765,0.552821209281683
1970-01-01 00:00:34.900,34943.5,-3.2890345454216003,-12.428779792785644,2.807680271193385
1970-01-01 00:00:35.000,35049.5,-0.8014590352773666,-10.8308895111084,-0.2755726188421249
1970-01-01 00:00:35.100,35148.4,-3.217208504676819,-8.329906749725343,0.22050596475601197
1970-01-01 00:00:35.200,35251.0,-2.217389941215515,-3.8130056381225588,-1.4745888233184814
1970-01-01 00:00:35.300,35347.0,-1.6753426551818849,-2.8400020599365234,-5.87513165473938
1970-01-01 00:00:35.400,35454.42857142857,-6.442198085784912,-4.651455008983612,-7.740693515539169
1970-01-01 00:00:35.500,35545.0,-4.403774896264077,-16.17103672027588,-1.086368948221207
1970-01-01 00:00:35.600,35637.5,-1.755308996140957,-13.151349735260009,-0.2468421936035156
1970-01-01 00:00:35.700,35734.71428571428,-2.571252930164337,-7.0346435546875,-2.341289830207825
1970-01-01 00:00:35.800,35842.5,-3.4274194478988647,-9.461885261535645,-0.4762067228555679
1970-01-01 00:00:35.900,35941.833333333336,-2.232712686061859,-9.530838203430175,-0.06631938815116883
1970-01-01 00:00:36.000,36049.28571428572,-1.9506758391857146,-8.971552658081055,0.37565024197101593
1970-01-01 00:00:36.100,36149.833333333336,-2.018112525343895,-11.22840690612793,1.3862427771091461
1970-01-01 00:00:36.200,36265.5,-4.3400890827178955,-15.114595413208008,-1.4065935015678406
1970-01-01 00:00:36.300,36358.0,0.6115987777709961,-12.680649757385254,0.25163059853948655
1970-01-01 00:00:36.400,36448.71428571428,-2.347634518146515,-10.073843193054199,-0.5614402830600738
1970-01-01 00:00:36.500,36556.2,-1.1821370750665665,-6.409756755828857,-1.280658495426178
1970-01-01 00:00:36.600,36655.5,-1.1213243663311006,-3.761769676208496,-2.539529728889465
1970-01-01 00:00:36.700,36754.6,0.7001842856407166,-4.629428386688232,-5.691735792160034
1970-01-01 00:00:36.800,36853.8,-3.0457837671041488,-15.436376142501832,-4.054101753234863
1970-01-01 00:00:36.900,36933.5,-5.479729016621907,-4.5920790036519366,-0.14804146687189737
1970-01-01 00:00:37.000,37064.0,-0.5077702403068542,-10.518925189971924,-0.8655039370059967
1970-01-01 00:00:37.100,37139.0,-1.1773487329483032,-8.334216117858887,-2.0434510707855225
1970-01-01 00:00:37.200,37233.666666666664,-2.093130886554718,-10.26274585723877,-0.6536170989274979
1970-01-01 00:00:37.300,37339.0,-2.273893117904663,-8.676587104797363,-0.1352723985910415
1970-01-01 00:00:37.400,37439.0,-2.30022931098938,-9.825803756713867,0.2082955464720726
1970-01-01 00:00:37.500,37539.0,-2.079962730407715,-17.01080322265625,-1.0761936902999878
1970-01-01 00:00:37.600,37627.666666666664,-4.8261120319366455,-13.46259593963623,-0.6069300770759583
1970-01-01 00:00:37.700,37739.0,-5.822100162506104,-9.63187313079834,-3.0346505641937256
1970-01-01 00:00:37.800,37840.5,-2.2511481642723083,-5.343858003616333,-1.3539210855960846
1970-01-01 00:00:37.900,37939.0,-0.7775170207023621,-2.7916390895843506,-3.26688814163208
1970-01-01 00:00:38.000,38057.333333333336,-5.3707930743694305,-5.790377020835876,-4.431667447090149
1970-01-01 00:00:38.100,38164.5,-4.559158682823181,-11.963826179504396,0.6189011335372925
1970-01-01 00:00:38.200,38263.0,-2.0703859329223637,-9.938331604003906,-1.7705121040344238
1970-01-01 00:00:38.300,38345.0,-0.0257376674562692,-7.218518257141113,-1.6316484212875366
1970-01-01 00:00:38.400,38450.333333333336,-1.7411831617355347,-9.320627212524414,-1.4628572463989258
1970-01-01 00:00:38.500,38539.0,-2.4127566814422607,-8.678980827331543,-0.1831564307212829
1970-01-01 00:00:38.600,38650.333333333336,-2.4797943830490112,-12.57275104522705,-0.11013328190892935
1970-01-01 00:00:38.700,38759.0,-0.4614823758602142,-17.12333106994629,-2.89339280128479
1970-01-01 00:00:38.800,38817.0,-2.8377275466918945,-14.37837839126587,2.914940595626831
1970-01-01 00:00:38.900,38937.5,-3.4135329723358154,-11.923124313354492,-0.9002198278903961
1970-01-01 00:00:39.000,39066.333333333336,-1.6837223768234253,-4.545391917228699,-0.6619967445731163
1970-01-01 00:00:39.100,39197.0,0.5776011347770691,-3.260902643203736,-5.728127479553223
1970-01-01 00:00:39.200,39295.0,-9.856329917907717,-10.539276123046877,-2.962824583053589
1970-01-01 00:00:39.300,39339.0,-7.677606105804443,-9.93354320526123,-3.989937067031861
1970-01-01 00:00:39.400,39464.666666666664,-1.2156559228897095,-8.911218643188477,-1.9369091987609863
1970-01-01 00:00:39.500,39539.0,-2.221220731735229,-8.020575523376465,-0.4273650050163269
1970-01-01 00:00:39.600,39631.0,-1.033696532249451,-8.942343711853027,-0.0634463429450988
1970-01-01 00:00:39.700,39730.5,-1.426345705986023,-9.05247688293457,0.7003039717674255
1970-01-01 00:00:39.800,39830.0,-1.1605892181396484,-10.163386344909668,-0.8176198601722717
1970-01-01 00:00:39.900,39946.5,-5.40910005569458,-13.407529830932617,-2.310404658317566
1970-01-01 00:00:40.000,40048.0,-3.80378794670105,-13.211204528808594,-0.4273650050163269
1970-01-01 00:00:40.100,40148.0,-5.309741020202637,-10.517727851867676,-2.8335378170013428
1970-01-01 00:00:40.200,40259.0,-0.15622165799140925,-4.632780313491821,-1.905784547328949
1970-01-01 00:00:40.300,40365.5,-0.1741781756281853,-2.964021682739258,-3.3195607662200928
1970-01-01 00:00:40.400,40464.5,-4.905120849609375,-9.979032516479492,-23.857023239135746
1970-01-01 00:00:40.500,40564.0,-9.86111831665039,-15.476119995117188,-4.58848762512207
1970-01-01 00:00:40.600,40662.5,-1.898003339767456,-8.130708694458008,-2.608482837677002
1970-01-01 00:00:40.700,40762.0,-0.9283517003059388,-7.690176010131836,-2.060210466384888
1970-01-01 00:00:40.800,40831.0,-2.7359740138053894,-8.315062363942465,-1.2477781176567078
1970-01-01 00:00:40.900,40939.5,-3.1477766036987305,-8.317456245422363,-0.6117185354232788
1970-01-01 00:00:41.000,41039.0,-3.129820227622986,-12.872425556182861,-2.2996307611465454
1970-01-01 00:00:41.100,41139.0,-0.2986766695976257,-14.18803882598877,0.6500257849693298
1970-01-01 00:00:41.200,41251.5,1.9375077486038208,-13.723564147949219,1.934514969587326
1970-01-01 00:00:41.300,41395.5,2.8628666400909424,-11.623848915100098,1.7393875122070312
1970-01-01 00:00:41.400,41495.0,-1.8692729473114011,-7.187393665313721,0.8008604645729065
1970-01-01 00:00:41.500,41524.5,-2.965817451477051,-4.376600742340088,-0.7601590156555176
1970-01-01 00:00:41.600,41664.6,-1.5466543026268482,-6.69179368019104,-4.617218047380447
1970-01-01 00:00:41.700,41748.0,-3.8985982716083525,-19.909224033355713,-6.357323837280274
1970-01-01 00:00:41.800,41847.166666666664,0.23714571595191955,-5.458779889345169,1.0110713839530945
1970-01-01 00:00:41.900,41949.6,-3.991014575958252,-9.093178081512452,-1.3922282874584198
1970-01-01 00:00:42.000,42051.375,-0.8962693929672241,-10.15859775543213,-0.16160861849784855
1970-01-01 00:00:42.100,42154.5,-3.5442565441131593,-8.401732444763184,-1.0302249789237976
1970-01-01 00:00:42.200,42247.0,-1.3147758483886718,-9.119514274597169,-1.668758600950241
1970-01-01 00:00:42.300,42343.0,-2.212122678756714,-7.407660102844238,-0.7400477349758148
1970-01-01 00:00:42.400,42442.166666666664,-2.016755771636963,-7.692091083526611,1.7288530826568604
1970-01-01 00:00:42.500,42548.0,0.8069656789302826,-9.788454246520995,-2.476322840154171
1970-01-01 00:00:42.600,42643.6,-6.896617794036866,-18.869182586669922,-1.9026720643043518
1970-01-01 00:00:42.700,42746.0,-2.600941038131714,-10.249098682403565,-0.07350199222564702
1970-01-01 00:00:42.800,42842.0,-2.626798415184021,-3.0976181030273438,1.3740323543548585
1970-01-01 00:00:42.900,42938.875,-2.1216218173503876,-2.6499025344848635,0.41347864717245103
1970-01-01 00:00:43.000,43034.57142857143,-3.2612618867307903,-11.905886268615722,-6.8945825576782225
1970-01-01 00:00:43.100,43148.0,-6.2765993277231855,-11.051236152648926,-4.06734957297643
1970-01-01 00:00:43.200,43258.4,-0.7535749912261962,-12.624625492095948,3.4794933557510377
1970-01-01 00:00:43.300,43357.6,-2.312200331687927,-10.416692924499511,-0.09504979252815256
1970-01-01 00:00:43.400,43456.6,-2.571252870559692,-7.600153923034668,-3.041833209991455
1970-01-01 00:00:43.500,43559.5,-0.3676296692341566,-5.9653928756713865,0.4177881836891175
1970-01-01 00:00:43.600,43648.5,-1.3253103852272035,-7.348762512207031,-0.35266593098640453
1970-01-01 00:00:43.700,43754.0,-1.2041637271642684,-17.38046817779541,-1.7408240556716919
1970-01-01 00:00:43.800,43850.0,-7.341460466384888,-13.558364105224609,-0.189860200881958
1970-01-01 00:00:43.900,43952.0,-2.879147243499756,-7.29848461151123,1.3242329239845276
1970-01-01 00:00:44.000,44048.0,-2.3835475206375123,-2.3391350746154784,1.868674397468567
1970-01-01 00:00:44.100,44153.833333333336,-0.8311471223831177,-5.056075239181519,-1.198776775598526
1970-01-01 00:00:44.200,44256.833333333336,-3.8578969478607177,-9.706093502044677,-7.305906438827515
1970-01-01 00:00:44.300,44352.166666666664,-4.9333723962306975,-18.951543140411378,1.0963048934936523
1970-01-01 00:00:44.400,44448.0,-1.2180500984191895,-12.254960870742797,2.1995531618595123
1970-01-01 00:00:44.500,44547.2,-4.57136902809143,-6.111917972564697,-0.8224082887172699
1970-01-01 00:00:44.600,44643.0,-0.3824737310409545,-6.723875999450684,-1.2710816454142333
1970-01-01 00:00:44.700,44745.333333333336,-0.5510255068540573,-8.086176872253418,-0.43406875878572465
1970-01-01 00:00:44.800,44847.42857142857,-1.2688072144985199,-11.003272151947021,0.2042253963649273
1970-01-01 00:00:44.900,44950.666666666664,-7.650312519073486,-16.036362838745116,1.4018050774931907
1970-01-01 00:00:45.000,45043.2,-2.039740115404129,-11.632946968078613,-0.9311050295829773
1970-01-01 00:00:45.100,45183.5,-3.1860837936401367,-3.883395195007324,1.6412252187728882
1970-01-01 00:00:45.200,45268.5,-2.515707492828369,-3.466804027557373,1.4879963397979736
1970-01-01 00:00:45.300,45335.0,0.3621230125427246,-5.681440830230713,-0.5805938839912415
1970-01-01 00:00:45.400,45423.666666666664,-4.4933180809021,-10.359710693359375,-5.725733280181885
1970-01-01 00:00:45.500,45535.0,-9.178771018981934,-23.113622665405277,-0.0227449163794517
1970-01-01 00:00:45.600,45635.0,-0.34656059741973877,-10.160991907119751,3.7074213922023773
1970-01-01 00:00:45.700,45735.0,-3.4326868057250977,-5.626373767852783,-1.5286977291107178
1970-01-01 00:00:45.800,45810.5,-0.34177225828170776,-7.360973119735718,-1.0737994462251663
1970-01-01 00:00:45.900,45917.0,-1.103128433227539,-7.477091789245605,-0.6380547285079956
1970-01-01 00:00:46.000,46035.5,-3.358466386795044,-12.436680793762207,-1.725022330880165
1970-01-01 00:00:46.100,46136.0,-5.824494361877441,-15.91665267944336,0.4106055796146393
1970-01-01 00:00:46.200,46236.0,-1.9829975366592407,-12.034454584121704,-1.1516110599040985
1970-01-01 00:00:46.300,46335.0,-2.2643163204193115,-3.162740468978882,0.951695203781128
1970-01-01 00:00:46.400,46455.666666666664,-2.267907500267029,-3.8702269792556763,-3.4093432128429413
1970-01-01 00:00:46.500,46534.5,-6.3069257736206055,-7.6566572189331055,-8.323442459106445
1970-01-01 00:00:46.600,46623.666666666664,-16.160263061523438,-15.416264533996582,-15.137340784072876
1970-01-01 00:00:46.700,46734.0,14.684237480163574,1.8794482946395876,6.951564788818359
1970-01-01 00:00:46.800,46826.666666666664,-4.236340502897899,-12.02288325627645,-4.140771786371867
1970-01-01 00:00:46.900,46948.0,-3.581127166748047,-8.40843677520752,-2.7664999961853027
1970-01-01 00:00:47.000,47034.5,-3.557185173034668,-7.437587738037109,-3.1184476613998413
1970-01-01 00:00:47.100,47135.0,-1.488594889640808,-6.445190906524658,-0.9876081943511964
1970-01-01 00:00:47.200,47223.666666666664,1.329380492369334,-9.204508304595947,-0.9660603441298008
1970-01-01 00:00:47.300,47335.0,-4.340089321136475,-17.841590881347656,-2.313995838165283
1970-01-01 00:00:47.400,47435.0,-2.926313042640686,-17.367538452148438,-0.1855506300926208
1970-01-01 00:00:47.500,47535.0,-2.324171304702759,-12.42351245880127,1.2653355598449707
1970-01-01 00:00:47.600,47642.0,-2.76350736618042,-4.365826725959778,1.6124948263168335
1970-01-01 00:00:47.700,47735.0,-2.9753942489624023,-2.432508945465088,0.2669534981250763
1970-01-01 00:00:47.800,47823.666666666664,-3.7008373737335205,-7.5572975873947135,-6.181829035282135
1970-01-01 00:00:47.900,47937.0,-5.817311763763428,-8.628703117370605,-6.199785232543945
1970-01-01 00:00:48.000,48036.0,-1.0348937213420868,-12.342109680175781,6.660669088363647
1970-01-01 00:00:48.100,48136.0,-5.6209869384765625,-9.694122314453123,-1.5909470319747925
1970-01-01 00:00:48.200,48244.5,-3.028066635131836,-8.263587236404419,-0.7888894081115723
1970-01-01 00:00:48.300,48335.0,-2.714426279067993,-9.41400146484375,1.258152961730957
1970-01-01 00:00:48.400,48450.666666666664,-2.4043771028518677,-9.927557468414307,0.7242459803819656
1970-01-01 00:00:48.500,48535.0,-3.447052001953125,-11.882423400878906,0.2549824714660644
1970-01-01 00:00:48.600,48646.333333333336,-2.495356798171997,-13.651738166809082,0.08140286803245547
1970-01-01 00:00:48.700,48752.5,-0.5811924338340759,-14.121001243591309,7.0808515548706055
1970-01-01 00:00:48.800,48849.5,-0.8481459766626358,-9.864110946655273,0.4932055324316025
1970-01-01 00:00:48.900,48950.5,-2.694075465202332,-5.635950565338135,1.4616601467132568
1970-01-01 00:00:49.000,49035.0,-0.019752174615859985,-3.246537446975708,-2.5629929304122925
1970-01-01 00:00:49.100,49146.0,-1.811812162399292,-3.466804027557373,-6.843825340270996
1970-01-01 00:00:49.200,49245.0,-9.964069247245789,-19.693506121635437,10.34175419807434
1970-01-01 00:00:49.300,49335.0,-2.5755624771118164,-17.108964920043945,0.6332663297653198
1970-01-01 00:00:49.400,49444.0,-1.894412100315094,-10.35492205619812,-2.082955479621887
1970-01-01 00:00:49.500,49535.0,-1.7088614702224731,-8.609549522399902,-2.139219284057617
1970-01-01 00:00:49.600,49643.0,-2.158971428871155,-9.628282070159912,-1.8579005002975464
1970-01-01 00:00:49.700,49734.5,-2.7144261598587036,-8.971074104309082,-0.0873883590102195
1970-01-01 00:00:49.800,49814.0,-2.5611972212791443,-9.228450775146484,0.4596867188811302
1970-01-01 00:00:49.900,49922.5,-0.739209771156311,-10.053253173828123,2.9747955799102783
1970-01-01 00:00:50.000,50021.5,0.1131260320544242,-17.401058197021484,-0.13646948337554943
1970-01-01 00:00:50.100,50155.4,-1.814206287264824,-12.832921266555786,-1.1635820269584656
1970-01-01 00:00:50.200,50248.333333333336,-1.5875551948944728,-9.897629737854004,-1.1731588294108708
1970-01-01 00:00:50.300,50357.0,-1.9841947078704834,-2.0360290884971617,-0.8942343354225158
1970-01-01 00:00:50.400,50456.166666666664,1.9150022000074387,-0.9691728562116623,-7.492175436019897
1970-01-01 00:00:50.500,50550.5,-4.797860634326935,-11.43183422088623,-8.108921909332276
1970-01-01 00:00:50.600,50651.166666666664,-5.471588850021362,-9.328767395019531,-2.012805384397507
1970-01-01 00:00:50.700,50760.333333333336,0.5158307641744614,-8.21259069442749,-2.062604784965515
1970-01-01 00:00:50.800,50859.333333333336,-1.3272257387638091,-8.541554069519043,-0.938766497373581
1970-01-01 00:00:50.900,50955.166666666664,-0.9264363408088684,-9.727641296386718,-0.3708618462085724
1970-01-01 00:00:51.000,51057.833333333336,-1.452681875228882,-8.853278923034669,-0.5805939123034477
1970-01-01 00:00:51.100,51150.2,-2.6852169036865234,-12.333490753173828,0.21428105235099792
1970-01-01 00:00:51.200,51249.2,-2.984013295173645,-14.403517532348634,-1.0608707785606384
1970-01-01 00:00:51.300,51341.666666666664,-2.995026609301567,-13.775278854370118,2.2373815000057222
1970-01-01 00:00:51.400,51447.666666666664,-1.9932926416397094,-7.914273357391357,-1.7365145444869996
1970-01-01 00:00:51.500,51546.8,-0.8028955422341824,-3.0334535121917723,-1.0599130868911744
1970-01-01 00:00:51.600,51652.5,-0.6118382424116134,-2.8179754257202148,-4.680903720855713
1970-01-01 00:00:51.700,51745.2,-5.159863758087158,-6.902004766464233,-9.772891902923584
1970-01-01 00:00:51.800,51844.2,-3.9977182388305663,-11.223059940338135,-1.3285425662994386
1970-01-01 00:00:51.900,51936.666666666664,-1.520198357105255,-9.508332633972168,-1.5459360361099244
1970-01-01 00:00:52.000,52033.857142857145,-1.5369577884674073,-8.38832492828369,-1.2222399830818176
1970-01-01 00:00:52.100,52134.833333333336,-0.618063160777092,-9.132442855834961,-1.399410879611969
1970-01-01 00:00:52.200,52240.666666666664,-2.4917654275894163,-8.746976470947265,-0.2248155489563942
1970-01-01 00:00:52.300,52351.142857142855,-2.6673402388890586,-12.763888200124105,-0.15203181436906255
1970-01-01 00:00:52.400,52458.8,-3.8981194734573363,-12.253524208068848,-0.5485115945339203
1970-01-01 00:00:52.500,52558.0,-2.23989542722702,-12.565728187561035,1.8543092608451843
1970-01-01 00:00:52.600,52663.5,-1.9861100435256958,-8.890149974822998,-1.4372392743825912
1970-01-01 00:00:52.700,52756.2,-1.6643293380737305,-6.218699550628662,-1.6354791641235351
1970-01-01 00:00:52.800,52852.42857142857,-0.4969165563583374,-3.417004632949829,-3.369360065460205
1970-01-01 00:00:52.900,52954.4,-1.8496405022218823,-7.232883310317993,-10.118135833740235
1970-01-01 00:00:53.000,53053.6,-5.444294834136963,-10.030268669128418,-0.9952696323394775
1970-01-01 00:00:53.100,53152.8,-1.3535619378089905,-9.14441375732422,-1.5454571723937989
1970-01-01 00:00:53.200,53251.8,-1.9995175838470458,-8.792945289611817,-1.1820173978805542
1970-01-01 00:00:53.300,53350.833333333336,-1.5091850757598877,-9.810959625244141,0.08116343915462494
1970-01-01 00:00:53.400,53449.8,-1.7596184968948365,-8.681375694274902,-0.37229835614562035
1970-01-01 00:00:53.500,53539.25,-2.120065599679947,-9.868300676345825,-0.13407530076801777
1970-01-01 00:00:53.600,53643.0,-3.369240403175354,-12.182895183563232,0.36750996112823486
1970-01-01 00:00:53.700,53764.5,-7.158064365386963,-14.161703109741213,1.035492181777954
1970-01-01 00:00:53.800,53825.0,-1.8393454253673553,-11.68729543685913,1.277306616306305
1970-01-01 00:00:53.900,53940.5,-2.71562322974205,-9.888851165771484,0.05147534608840931
1970-01-01 00:00:54.000,54021.0,-0.4854243993759155,-8.283937454223633,-1.1767501831054688
1970-01-01 00:00:54.100,54138.333333333336,-0.07003042101860046,-4.963180184364319,-2.919728994369507
1970-01-01 00:00:54.200,54221.0,-0.5548562407493591,-3.801992416381836,-3.618835926055908
1970-01-01 00:00:54.300,54329.0,-4.286219626665115,-21.164743781089783,4.602852344512938
1970-01-01 00:00:54.400,54423.0,-1.7184382677078247,0.8379706144332886,4.698620796203613
1970-01-01 00:00:54.500,54528.0,-1.3509283363819125,-9.730035781860352,-1.7238252758979797
1970-01-01 00:00:54.600,54641.0,-0.4423287510871887,-8.769960403442383,-2.299630641937256
1970-01-01 00:00:54.700,54737.0,-2.3313539028167725,-9.382876873016357,-0.6536170542240142
1970-01-01 00:00:54.800,54854.0,-2.3373395204544067,-9.010578155517578,-0.3339911252260208
1970-01-01 00:00:54.900,54954.0,-2.807800054550171,-9.064447402954102,-0.669179379940033
1970-01-01 00:00:55.000,55054.0,-2.330156803131104,-10.362104892730713,-0.7242460052172343
1970-01-01 00:00:55.100,55176.0,-0.6554127335548401,-15.447389602661133,1.5454572439193726
1970-01-01 00:00:55.200,55265.0,-4.799776077270508,-7.718906402587891,-4.490325450897217
1970-01-01 00:00:55.300,55354.0,2.4426841735839844,-17.343597412109375,2.804807186126709
1970-01-01 00:00:55.400,55465.333333333336,-2.8568811416625977,-8.938751697540283,-1.192312479019165
1970-01-01 00:00:55.500,55572.5,-1.817797601222992,-2.8634653091430664,0.1233013868331909
1970-01-01 00:00:55.600,55653.0,-0.6769605278968811,-5.905298352241516,-1.4508862048387527
1970-01-01 00:00:55.700,55771.0,-10.986392974853516,-22.555774688720703,-10.466252326965332
1970-01-01 00:00:55.800,55850.0,4.745906233787537,-10.135853052139282,2.6779146417975426
1970-01-01 00:00:55.900,55954.5,-6.724713802337647,-6.995857238769531,0.1640028208494186
1970-01-01 00:00:56.000,56054.5,-1.3221979141235352,-9.809044361114502,-0.2178723514080047
1970-01-01 00:00:56.100,56155.0,-3.2603042125701904,-8.506598472595215,-0.6117185354232788
1970-01-01 00:00:56.200,56254.5,-1.1402385532855988,-8.404845237731934,0.4177881861105561
1970-01-01 00:00:56.300,56354.5,0.5835866779088974,-7.539340972900391,-0.9900023937225342
1970-01-01 00:00:56.400,56421.0,-0.5428852438926697,-12.076353073120115,-3.750516891479492
1970-01-01 00:00:56.500,56529.5,-4.960187315940857,-13.607444763183594,0.6847416842356324
1970-01-01 00:00:56.600,56665.333333333336,-2.922721743583679,-5.2014031410217285,0.9840169250965118
1970-01-01 00:00:56.700,56754.0,-3.5284547805786133,-2.0901381969451904,0.3459621369838714
1970-01-01 00:00:56.800,56861.666666666664,-3.655347526073456,-9.743204116821289,-5.370194435119629
1970-01-01 00:00:56.900,56956.0,-5.01285982131958,-7.706935405731201,-3.132812976837158
1970-01-01 00:00:57.000,57064.0,-3.472191095352173,-22.02066993713379,-2.106897473335266
1970-01-01 00:00:57.100,57154.5,-4.999691724777222,-8.547300338745117,0.0849941596388816
1970-01-01 00:00:57.200,57263.0,-2.084751069545746,-7.116764545440674,-1.1372458040714264
1970-01-01 00:00:57.300,57354.0,-1.4766238927841189,-7.55131196975708,-2.9316999912261963
1970-01-01 00:00:57.400,57454.5,-0.4124012291431427,-8.005013465881348,0.33997666835784923
1970-01-01 00:00:57.500,57575.0,-2.633023262023926,-14.82968521118164,-2.3977930545806885
1970-01-01 00:00:57.600,57675.0,-7.996035099029541,-13.4506254196167,0.750582218170166
1970-01-01 00:00:57.700,57774.0,-2.803011655807495,-7.872135162353516,0.8631097078323364
1970-01-01 00:00:57.800,57852.6,-1.534084741026163,-1.03349702556928,1.558226227760315
1970-01-01 00:00:57.900,57971.5,0.8816647529602051,-3.7014358043670654,-0.3244143426418304
1970-01-01 00:00:58.000,58054.5,-3.977367639541626,-8.614337921142578,-7.246051549911499
1970-01-01 00:00:58.100,58154.0,-9.09257984161377,-16.58942413330078,4.550180435180664
1970-01-01 00:00:58.200,58221.0,2.2918496131896973,-6.229712963104248,5.88853931427002
1970-01-01 00:00:58.300,58311.5,-3.2866404056549072,-11.504138946533203,-2.0817582607269287
1970-01-01 00:00:58.400,58408.5,-4.016871929168701,-6.7492547035217285,-1.6172832250595093
1970-01-01 00:00:58.500,58523.0,0.7164648771286013,-6.82706618309021,-1.314416766166687
1970-01-01 00:00:58.600,58653.666666666664,-6.673637628555298,-14.844050884246828,-3.155557870864868
1970-01-01 00:00:58.700,58749.5,-3.293822944164276,-11.706449031829834,0.36032734811306
1970-01-01 00:00:58.800,58825.0,-2.118269920349121,-1.6328455209732056,1.701080322265625
1970-01-01 00:00:58.900,58944.5,-1.8752585053443909,-4.388571739196777,0.5578489899635315
1970-01-01 00:00:59.000,59062.0,-1.8860323429107664,-16.302120208740234,-12.020090103149414
1970-01-01 00:00:59.100,59162.0,-4.505289077758789,-16.847997665405273,0.4704606235027313
1970-01-01 00:00:59.200,59279.5,-3.06876802444458,-9.561244487762451,1.9572598710656168
1970-01-01 00:00:59.300,59366.0,-4.70879602432251,-6.387730121612549,-0.5111620426177979
1970-01-01 00:00:59.400,59458.5,-0.5740098357200623,-5.793968200683594,0.1280897855758667
1970-01-01 00:00:59.500,59525.333333333336,0.0077811479568481445,-7.419631242752075,-0.36631285399198527
1970-01-01 00:00:59.600,59678.0,-4.957793116569519,-14.720749378204344,-0.8379705548286438
1970-01-01 00:00:59.700,59796.0,-8.936956405639648,-18.51914978027344,-2.388216257095337
1970-01-01 00:00:59.800,59843.333333333336,-3.654150366783142,-8.322245359420776,0.6775590628385544
1970-01-01 00:00:59.900,59995.0,-1.2348095178604126,-3.878606796264648,0.8810662627220154
1970-01-01 00:01:00.000,60054.0,-0.50577512383461,-2.6683377623558044,-2.2026655673980713
1970-01-01 00:01:00.100,60194.0,-7.31847620010376,-9.672574996948242,-7.902062892913818
1970-01-01 00:01:00.200,60231.5,-5.527613162994385,-2.8203697204589844,-5.438429355621338
1970-01-01 00:01:00.300,60348.0,-14.40770673751831,-28.702887535095215,-7.037756085395813
1970-01-01 00:01:00.400,60432.0,-6.444592475891113,-19.53668594360352,-0.1089361757040023
1970-01-01 00:01:00.500,60541.333333333336,-2.8544869422912598,-6.710947513580322,-2.977189779281616
1970-01-01 00:01:00.600,60632.0,-2.439092874526977,-6.268020153045654,-1.85430920124054
1970-01-01 00:01:00.700,60727.5,-3.6433764696121216,-8.401253700256348,-1.6508020162582395
1970-01-01 00:01:00.800,60820.0,-1.0133458971977234,-9.329007148742676,-0.990002453327179
1970-01-01 00:01:00.900,60945.5,-2.321777105331421,-9.467870712280273,-1.7058687210083008
1970-01-01 00:01:01.000,61081.5,-6.385934352874756,-10.548852682113647,-0.8690952658653259
1970-01-01 00:01:01.100,61166.0,-8.407837867736816,-15.931017875671388,3.4608185291290283
1970-01-01 00:01:01.200,61280.5,-0.8349778652191162,-14.153323650360107,0.3064578175544739
1970-01-01 00:01:01.300,61366.0,-0.8277952671051025,-9.615114212036133,1.2006921768188477
1970-01-01 00:01:01.400,61461.5,-1.2132617235183716,-2.808398485183716,1.8183962106704712
1970-01-01 00:01:01.500,61561.0,-2.2260091304779053,-1.192312479019165,-0.8080430626869202
1970-01-01 00:01:01.600,61665.5,-8.956110000610352,-18.41260814666748,-11.253945350646973
1970-01-01 00:01:01.700,61799.0,11.904569625854492,-5.525817394256592,6.508637428283691
1970-01-01 00:01:01.800,61849.5,-2.4410083532333373,-6.6161370277404785,-1.1753136038780212
1970-01-01 00:01:01.900,61955.4,-2.5583242654800413,-9.08934726715088,-2.2579716444015503
1970-01-01 00:01:02.000,62054.4,-1.894172692298889,-9.495403861999511,0.28754364252090453
1970-01-01 00:01:02.100,62156.833333333336,-2.484582853317261,-9.226295661926269,0.9291896939277648
1970-01-01 00:01:02.200,62252.5,-2.6933571815490724,-11.721054077148438,-0.38857893347740174
1970-01-01 00:01:02.300,62351.6,-1.5982492923736573,-12.803711700439454,1.0398017942905426
1970-01-01 00:01:02.400,62457.5,-2.0608091175556185,-13.302663612365723,3.448847568035126
1970-01-01 00:01:02.500,62550.0,-2.3054964900016786,-11.511321830749512,0.6184222757816314
1970-01-01 00:01:02.600,62649.4,-1.1481394052505494,-10.243831253051757,0.9210493922233581
1970-01-01 00:01:02.700,62741.666666666664,-2.595673751831055,-5.457343292236328,-0.2229001708328724
1970-01-01 00:01:02.800,62847.5,-1.8482040166854858,-3.767037010192871,-3.391865539550781
1970-01-01 00:01:02.900,62950.0,-2.1546618223190306,-4.329195499420166,-7.120116491615772
1970-01-01 00:01:03.000,63049.0,-6.1156291484832765,-14.639585828781128,-2.443282651901245
1970-01-01 00:01:03.100,63151.5,-1.4737508237361907,-11.425609397888184,0.8894459366798401
1970-01-01 00:01:03.200,63244.0,-0.983418321609497,-7.292738342285157,-3.0557196617126463
1970-01-01 00:01:03.300,63334.71428571428,-2.043570852279663,-9.842084503173828,-1.0733206391334533
1970-01-01 00:01:03.400,63442.4,-2.6440365478396415,-9.001240730285645,-0.7965508893132209
1970-01-01 00:01:03.500,63541.6,-2.6023775339126587,-9.003634834289551,0.2856282666325569
1970-01-01 00:01:03.600,63640.6,-2.7029340267181396,-12.422554779052735,0.1697489082813263
1970-01-01 00:01:03.700,63749.5,-2.2100476821263633,-13.765861670176188,-0.430158237616221
1970-01-01 00:01:03.800,63862.166666666664,-1.739507246017456,-12.397176361083984,0.39911341816186907
1970-01-01 00:01:03.900,63964.5,-2.0957644820213317,-12.573868370056152,-0.2559401452541351
1970-01-01 00:01:04.000,64065.28571428572,-2.7776330947875976,-7.4986395835876465,-0.557130740582943
1970-01-01 00:01:04.100,64152.833333333336,-1.8980034351348878,-2.682463598251343,-1.5516821265220642
1970-01-01 00:01:04.200,64255.0,0.4353855729103088,-2.40282084941864,-7.693767166137695
1970-01-01 00:01:04.300,64354.5,-5.469673538208008,-9.803298282623292,-8.808986234664918
1970-01-01 00:01:04.400,64453.5,-4.310401105880738,-9.502586555480956,-2.938882601261139
1970-01-01 00:01:04.500,64556.0,-0.9230844616889954,-7.568550491333008,-2.7679365158081053
1970-01-01 00:01:04.600,64658.5,-1.268328356742859,-8.369171333312988,-0.7319074630737304
1970-01-01 00:01:04.700,64744.5,-0.5175066888332367,-10.198820114135742,0.08882488310337067
1970-01-01 00:01:04.800,64850.0,-1.2544419765472412,-9.80281925201416,-0.37565024346113207
1970-01-01 00:01:04.900,64949.2,-1.9999963760375976,-10.156682586669922,-0.5125985890626907
1970-01-01 00:01:05.000,65045.0,-3.325426435470581,-14.54046573638916,-1.5784971714019775
1970-01-01 00:01:05.100,65144.57142857143,-2.6105177879333494,-13.551660346984864,1.094868415594101
1970-01-01 00:01:05.200,65232.75,-1.790264328320821,-12.716403325398764,-0.23423278331756578
1970-01-01 00:01:05.300,65348.0,-3.442263603210449,-10.280701637268066,-1.4089876413345337
1970-01-01 00:01:05.400,65474.5,-0.26994623243808746,-3.301604151725769,-1.7058687210083008
1970-01-01 00:01:05.500,65565.0,0.2352303117513656,-3.2154128551483154,-5.189432144165039
1970-01-01 00:01:05.600,65663.0,-2.4307132959365845,-5.334281325340271,-5.473145246505737
1970-01-01 00:01:05.700,65765.0,-2.7263972759246826,-8.949525833129883,-1.279700756072998
1970-01-01 00:01:05.800,65857.66666666667,-0.9898028771082562,-9.090783596038818,-1.8088193535804749
1970-01-01 00:01:05.900,65982.0,-1.2228385210037231,-8.607154846191406,-0.992396593093872
1970-01-01 00:01:06.000,66081.0,-1.6585832834243774,-9.387664794921877,-1.3539210557937622
1970-01-01 00:01:06.100,66180.0,-3.3297359943389893,-8.437167167663574,-0.3220201432704925
1970-01-01 00:01:06.200,66265.0,-2.824559450149536,-13.972561359405518,-1.0498574078083038
1970-01-01 00:01:06.300,66378.5,-5.582679748535156,-12.011710166931152,-3.317166566848755
1970-01-01 00:01:06.400,66449.0,-5.4557870626449585,-12.698845545450846,3.3004070520401
1970-01-01 00:01:06.500,66596.5,-3.619434475898743,-9.41400146484375,-3.0538041591644287
1970-01-01 00:01:06.600,66631.0,-0.8182184100151062,-3.746925592422485,0.5015852451324463
1970-01-01 00:01:06.700,66716.0,-1.7184382677078247,-1.5322890281677246,-0.1879448294639587
1970-01-01 00:01:06.800,66825.0,-5.886743426322937,-6.843825578689576,-2.7676970958709717
1970-01-01 00:01:06.900,66936.0,-3.7630865573883057,-7.637503623962402,-2.539050817489624
1970-01-01 00:01:07.000,67033.0,-1.2156559228897097,-9.066842079162598,-3.578134536743164
1970-01-01 00:01:07.100,67128.0,-1.3257891535758972,-9.417592525482178,-1.5131354928016663
1970-01-01 00:01:07.200,67231.0,-0.4183867573738098,-10.290278434753418,-1.895010590553284
1970-01-01 00:01:07.300,67347.5,-2.5743653774261475,-8.383296966552734,-0.6971117158730825
1970-01-01 00:01:07.400,67449.5,-2.515707492828369,-11.116278648376465,-0.1592144072055816
1970-01-01 00:01:07.500,67548.0,-4.505289077758789,-16.03636360168457,-3.6308069229125977
1970-01-01 00:01:07.600,67659.66666666667,-0.2962825000286102,-16.03995418548584,1.4449007511138916
1970-01-01 00:01:07.700,67766.0,-1.3569138050079346,-13.781024932861328,-0.7242460250854492
1970-01-01 00:01:07.800,67874.66666666667,-0.09397241473197934,-4.106055855751038,-0.3435679450631141
1970-01-01 00:01:07.900,67967.5,-0.6218938827514648,-1.6065093278884888,-1.868674397468567
1970-01-01 00:01:08.000,68081.0,-4.154538720846176,-10.718840599060059,-1.7956511974334717
1970-01-01 00:01:08.100,68183.0,-2.2260091304779053,1.6089035272598269,-0.4680664241313934
1970-01-01 00:01:08.200,68282.0,-2.994547843933105,-6.208165168762207,-5.361814498901367
1970-01-01 00:01:08.300,68381.0,-1.653794765472412,-7.826645374298096,-3.994725465774536
1970-01-01 00:01:08.400,68451.5,-0.42916064523160463,-10.061632633209229,-2.025494694709778
1970-01-01 00:01:08.500,68579.5,-0.3298012912273407,-8.83939266204834,-1.3060370683670044
1970-01-01 00:01:08.600,68631.5,-3.9055415391921997,-9.239224433898926,-0.7433996200561523
1970-01-01 00:01:08.700,68742.5,-2.318185806274414,-9.258378028869629,-1.6053122282028198
1970-01-01 00:01:08.800,68818.5,-1.6573861241340637,-8.250418663024902,-1.4544775485992432
1970-01-01 00:01:08.900,68941.5,-2.6928783655166626,-8.198943614959717,-1.0749966129660606
1970-01-01 00:01:09.000,69032.0,-3.6768951416015625,-10.366893768310549,-1.1049240827560425
1970-01-01 00:01:09.100,69140.0,-2.1314380690455437,-11.616666793823242,-1.9105729907751083
1970-01-01 00:01:09.200,69232.0,-3.533243179321289,-11.233593940734863,2.053027868270874
1970-01-01 00:01:09.300,69340.0,-1.6741456091403961,-9.66419529914856,-0.4489128291606903
1970-01-01 00:01:09.400,69475.0,-2.3337481021881104,-4.899733781814575,-0.1041477620601654
1970-01-01 00:01:09.500,69565.0,-2.099116325378418,-3.464409828186035,0.1256955862045288
1970-01-01 00:01:09.600,69682.33333333333,-2.421136498451233,-6.190208673477173,-3.350685238838196
1970-01-01 00:01:09.700,69765.0,-3.937863349914551,-6.964732646942139,-7.351396083831787
1970-01-01 00:01:09.800,69839.0,-3.01250422000885,-14.322114571928978,-2.1595699787139893
1970-01-01 00:01:09.900,69965.0,-0.8182184100151062,-17.350780487060547,-1.7322049140930176
1970-01-01 00:01:10.000,70065.5,-1.6837223172187805,-6.293159008026123,-0.28131868690252304
1970-01-01 00:01:10.100,70185.5,-0.9498994946479796,-7.122750282287598,-2.0817582607269287
1970-01-01 00:01:10.200,70260.0,0.4878185987472535,-9.224859237670898,-1.8136077523231504
1970-01-01 00:01:10.300,70336.0,-2.4979903221130373,-15.125129890441894,-4.023934817314148
1970-01-01 00:01:10.400,70445.16666666667,-4.6671370506286625,-14.649641609191894,-0.6763619780540466
1970-01-01 00:01:10.500,70541.4,-3.602675032615662,-6.9307352066040036,0.4589684784412384
1970-01-01 00:01:10.600,70639.8,-2.7685351371765137,-1.1789048969745637,2.0606894493103027
1970-01-01 00:01:10.700,70745.66666666667,-0.803374358266592,-9.60314302444458,-4.246595507860183
1970-01-01 00:01:10.800,70848.16666666667,-5.734711726506551,-10.954270839691162,-5.458380818367004
1970-01-01 00:01:10.900,70957.4,-0.20482397079467773,-13.00147304534912,3.705505919456482
1970-01-01 00:01:11.000,71049.5,-3.736750292778015,-11.44188995361328,-0.9191340744495392
1970-01-01 00:01:11.100,71148.0,-2.6263195872306824,-7.27645788192749,-0.9928754448890686
1970-01-01 00:01:11.200,71254.66666666667,-0.3891774952411652,-7.0643316268920895,-1.3658920764923095
1970-01-01 00:01:11.300,71360.66666666667,0.06667851507663727,-8.088092231750489,-0.9368511125445366
1970-01-01 00:01:11.400,71456.33333333333,-2.7105953961610796,-16.813999748229982,-1.9725827693939209
1970-01-01 00:01:11.500,71552.2,-5.701911079883575,-13.1839111328125,-0.24684220552444458
1970-01-01 00:01:11.600,71654.16666666667,-2.5765201687812804,-5.529169368743896,1.0468646734952927
1970-01-01 00:01:11.700,71743.66666666667,-2.2633585691452027,-3.406470203399659,1.9328390121459962
1970-01-01 00:01:11.800,71840.85714285714,-0.9757569022476673,-8.556398010253906,-2.696110501885414
1970-01-01 00:01:11.900,71948.6,-6.565739154815674,-9.732908725738525,-7.3370311737060545
1970-01-01 00:01:12.000,72047.4,-0.5103241443634033,-14.394419312477112,5.0290207862854
1970-01-01 00:01:12.100,72147.0,-3.6184768319129943,-12.881283855438232,0.18028343319892884
1970-01-01 00:01:12.200,72246.0,-3.1544804513454436,-6.965690422058105,-1.1930307030677796
1970-01-01 00:01:12.300,72345.28571428571,-0.09756372570991508,-6.825869083404541,-1.913206547498703
1970-01-01 00:01:12.400,72441.33333333333,0.06859385967254639,-7.380844974517823,1.077151346206665
1970-01-01 00:01:12.500,72536.66666666667,-2.7685351610183715,-9.207620906829835,-2.1933281660079955
1970-01-01 00:01:12.600,72639.16666666667,-5.93319091796875,-20.989008331298827,-1.3065158605575562
1970-01-01 00:01:12.700,72741.6,-4.250545883178711,-10.71788306236267,-0.7448361158370972
1970-01-01 00:01:12.800,72846.28571428571,-2.0531476736068726,-3.3801340103149413,0.20470424890518188
1970-01-01 00:01:12.900,72954.875,-1.7000827193260193,-3.9955236514409385,-3.1252313355604806
1970-01-01 00:01:13.000,73065.66666666667,-5.066968774795532,-6.205770683288574,-5.430288887023925
1970-01-01 00:01:13.100,73159.2,-5.552512836456299,-6.140169620513916,-5.633317184448242
1970-01-01 00:01:13.200,73263.66666666667,-6.147711563110351,-18.967344331741334,-2.504574382305145
1970-01-01 00:01:13.300,73356.0,-2.1240161418914796,-10.573752352222801,0.1711853861808777
1970-01-01 00:01:13.400,73455.4,-0.5146336555480957,-7.930074787139892,-3.668156385421753
1970-01-01 00:01:13.500,73554.6,-3.898119497299194,-6.825869083404541,-2.48206889629364
1970-01-01 00:01:13.600,73653.66666666667,-0.6836642801761628,-8.046433067321777,-1.5037980370223523
1970-01-01 00:01:13.700,73744.0,-0.9044097065925598,-8.154650847117106,-1.2653356194496155
1970-01-01 00:01:13.800,73866.66666666667,0.05327099561691295,-8.180987119674683,-0.5961561985313893
1970-01-01 00:01:13.900,73959.0,-3.339312791824341,-13.369222640991213,-2.096123695373535
1970-01-01 00:01:14.000,74059.0,-3.2722752690315247,-16.982072830200195,1.0534487217664719
1970-01-01 00:01:14.100,74190.5,-0.497395396232605,-14.255077362060549,3.286041736602783
1970-01-01 00:01:14.200,74290.0,-2.9753942489624023,-5.430049419403076,2.6611552238464355
1970-01-01 00:01:14.300,74359.0,-2.034472942352295,-1.5131354331970217,1.8064252138137815
1970-01-01 00:01:14.400,74459.0,-2.6916812658309937,-4.7477017641067505,-2.1727381646633153
1970-01-01 00:01:14.500,74559.0,-7.153275966644287,-7.062894821166992,-9.139864921569824
1970-01-01 00:01:14.600,74659.0,2.3349454402923584,-18.91778540611267,10.845733880996704
1970-01-01 00:01:14.700,74759.0,-5.609015941619873,-12.236764907836914,-1.0019733905792236
1970-01-01 00:01:14.800,74849.5,-2.279878556728363,-7.833828210830688,-2.1188684701919556
1970-01-01 00:01:14.900,74959.0,-2.896385431289673,-8.367734909057617,-1.3323732614517212
1970-01-01 00:01:15.000,75059.0,-1.8860323429107666,-8.993818759918213,0.9840168952941896
1970-01-01 00:01:15.100,75159.0,-1.7639280557632446,-9.919178009033203,2.3977930545806885
1970-01-01 00:01:15.200,75249.33333333333,0.6075286865234377,-13.91270637512207,0.9433154761791229
1970-01-01 00:01:15.300,75360.0,-11.118074417114258,-10.409989356994627,-2.553416013717652
1970-01-01 00:01:15.400,75426.0,0.7332242727279663,-15.662867546081545,5.577292919158936
1970-01-01 00:01:15.500,75545.33333333333,-2.7371710538864136,-12.15177059173584,0.36272154375910753
1970-01-01 00:01:15.600,75647.66666666667,-3.597886562347412,-5.220556616783142,0.8283937722444534
1970-01-01 00:01:15.700,75759.0,-2.0871453285217285,-3.450044631958008,-1.7944542169570925
1970-01-01 00:01:15.800,75840.0,1.0372878313064575,-3.533841609954834,-11.007342338562012
1970-01-01 00:01:15.900,75943.0,-5.285798788070679,-2.9460651874542236,1.504755973815918
1970-01-01 00:01:16.000,76071.0,-0.5704185664653778,-9.67417081197103,-2.312798857688904
1970-01-01 00:01:16.100,76159.0,-3.3297359943389893,-6.00226354598999,-2.869450807571411
1970-01-01 00:01:16.200,76272.5,-2.1900960505008698,-9.928754329681396,-0.9074024558067322
1970-01-01 00:01:16.300,76391.5,-3.775057554244995,-9.727641105651855,-0.3603273630142212
1970-01-01 00:01:16.400,76490.5,-1.3880384564399717,-9.586383819580078,1.382651448249817
1970-01-01 00:01:16.500,76590.0,-1.7088614702224731,-13.594277381896973,0.8559271097183228
1970-01-01 00:01:16.600,76689.0,-4.395155906677246,-11.87763500213623,-5.270834922790527
1970-01-01 00:01:16.700,76788.0,0.2304419130086898,-12.70363426208496,-1.698686122894287
1970-01-01 00:01:16.800,76853.5,-0.5221354776682953,-9.424376010894775,-0.807245006163915
1970-01-01 00:01:16.900,76986.5,-2.874837636947632,-4.855441093444824,-0.5997475385665894
1970-01-01 00:01:17.000,77025.0,-1.5580267906188965,-0.6129156351089478,-2.986766576766968
1970-01-01 00:01:17.100,77158.0,-0.8277952075004578,-3.0992940068244934,-10.07120943069458
1970-01-01 00:01:17.200,77260.0,-3.8540661334991455,-10.208876132965088,-2.815581202507019
1970-01-01 00:01:17.300,77360.0,-0.3202244639396667,-9.327810287475586,-2.718616008758545
1970-01-01 00:01:17.400,77459.0,-0.5484717090924581,-8.30787992477417,-1.0259153842926025
1970-01-01 00:01:17.500,77559.0,-0.4542997777462005,-8.336610794067383,-1.9381062984466555
1970-01-01 00:01:17.600,77659.5,-0.6362590789794922,-10.055647373199463,-1.820790410041809
1970-01-01 00:01:17.700,77759.0,-2.927510023117065,-12.99812126159668,-0.1280897855758667
1970-01-01 00:01:17.800,77857.0,-1.681328147649765,-15.119383811950684,0.4082113802433014
1970-01-01 00:01:17.900,77944.5,-4.395155906677246,-13.807361602783203,1.6148890256881714
1970-01-01 00:01:18.000,78064.5,-1.1318588852882385,-7.569268703460693,-0.7529764249920846
1970-01-01 00:01:18.100,78176.66666666667,-0.3992331326007844,-1.1336545050144196,-2.545036308467388
1970-01-01 00:01:18.200,78275.0,1.6406266689300537,-1.7381904125213623,-6.925228595733643
1970-01-01 00:01:18.300,78374.0,-7.390302181243896,-34.19398880004883,6.18302583694458
1970-01-01 00:01:18.400,78474.0,-3.296217203140259,-11.815385818481444,-1.2485761642456057
1970-01-01 00:01:18.500,78544.0,-0.5835866928100586,-7.941566944122314,-1.3658920526504517
1970-01-01 00:01:18.600,78659.0,-1.2611457854509351,-8.863334655761719,-1.499967336654663
1970-01-01 00:01:18.700,78774.0,-1.8070237040519714,-9.334992408752441,-0.6500257328152657
1970-01-01 00:01:18.800,78848.8,-3.144424843788147,-14.402080726623534,-1.5167267799377442
1970-01-01 00:01:18.900,78947.8,-2.901652789115906,-12.589191436767578,-0.2166752249002458
1970-01-01 00:01:19.000,79047.2,-2.6339809894561768,-12.99141731262207,0.2655169665813446
1970-01-01 00:01:19.100,79146.33333333333,-2.176688461005688,-6.74063549041748,-1.3156138241291047
1970-01-01 00:01:19.200,79238.66666666667,-0.4758475884795189,-3.3336864829063417,-1.7432182431221008
1970-01-01 00:01:19.300,79344.4,-0.28766332864761346,-2.8725632190704347,-6.957310581207276
1970-01-01 00:01:19.400,79443.5,-5.536711120605469,-9.782229262590409,-6.478948974609375
1970-01-01 00:01:19.500,79540.28571428571,-3.216250848770142,-10.82274923324585,-0.9775525808334351
1970-01-01 00:01:19.600,79642.2,-2.2983139634132383,-8.531019496917725,-1.4870386600494385
1970-01-01 00:01:19.700,79741.0,-0.545758262835443,-9.217197799682618,-1.4798560619354248
1970-01-01 00:01:19.800,79840.125,-1.753154178460439,-8.216421318054199,-1.2169727325439452
1970-01-01 00:01:19.900,79945.0,-2.5592819452285767,-11.350910186767578,-0.6496267269055048
1970-01-01 00:01:20.000,80058.2,-4.1983524560928345,-15.238615226745605,-1.0225635685026646
1970-01-01 00:01:20.100,80157.4,-1.2261904001235961,-13.598586654663086,1.2543222427368164
1970-01-01 00:01:20.200,80253.16666666667,-2.2269667387008667,-9.999143886566163,-1.669476854801178
1970-01-01 00:01:20.300,80359.0,-0.453820937871933,-5.699636507034302,-1.2246341466903687
1970-01-01 00:01:20.400,80454.6,-0.6851008006371557,-2.6805481910705566,-3.021721935272217
1970-01-01 00:01:20.500,80562.42857142857,-1.8960880279541015,-2.3242910146713256,-6.645106792449951
1970-01-01 00:01:20.600,80653.0,-4.8443080425262455,-9.382397794723511,-8.831013107299805
1970-01-01 00:01:20.700,80745.83333333333,-4.026927542686463,-11.228806018829346,-0.5849034622311592
1970-01-01 00:01:20.800,80851.2,-0.7296329617500306,-8.30692195892334,-2.5778369426727297
1970-01-01 00:01:20.900,80947.0,-1.8108544826507569,-8.280586051940919,-2.8718449115753173
1970-01-01 00:01:21.000,81049.66666666667,-2.900216245651245,-9.35079402923584,-1.195903742313385
1970-01-01 00:01:21.100,81152.0,-3.0002938747406005,-8.727343940734864,-0.9263166427612305
1970-01-01 00:01:21.200,81247.8,-2.326086640357971,-9.245928001403808,-0.4522646993398666
1970-01-01 00:01:21.300,81355.42857142857,-2.7436354398727416,-10.134177017211915,-0.10941501259803772
1970-01-01 00:01:21.400,81452.66666666667,-2.9476213812828065,-12.88655128479004,-1.0196905240416527
1970-01-01 00:01:21.500,81545.4,2.725678896903992,-13.061327934265137,-1.7547104597091674
1970-01-01 00:01:21.600,81637.83333333333,-2.0732589244842528,-10.942938232421875,1.1264719367027285
1970-01-01 00:01:21.700,81740.0,-1.3655329465866088,-10.20648193359375,-1.9721039175987243
1970-01-01 00:01:21.800,81835.125,-2.7316644191741943,-7.223785400390625,-2.0808006525039673
1970-01-01 00:01:21.900,81934.375,-3.662051200866699,-4.03375096321106,-1.4477737903594972
1970-01-01 00:01:22.000,82040.8,-1.1979387879371644,-3.589387226104736,-1.7336414813995362
1970-01-01 00:01:22.100,82133.33333333333,-0.9489418148994446,-11.579796028137206,-6.199785280227661
1970-01-01 00:01:22.200,82230.66666666667,-5.345653851826985,-8.465099016825357,-4.434460560480754
1970-01-01 00:01:22.300,82338.5,-6.284181118011475,-12.871228218078612,-7.667430877685547
1970-01-01 00:01:22.400,82438.0,-1.8201918900012974,-15.425841331481934,0.16160857677459706
1970-01-01 00:01:22.500,82538.0,-3.030460834503174,-7.137115478515625,1.2437877655029297
1970-01-01 00:01:22.600,82638.0,-1.0253168961498886,-9.345766067504883,-2.3427263498306274
1970-01-01 00:01:22.700,82738.0,-1.3114240169525146,-7.331045627593994,0.3794809579849243
1970-01-01 00:01:22.800,82831.0,-1.777495265007019,-8.510588645935059,0.44252829750378925
1970-01-01 00:01:22.900,82938.0,0.8553285598754883,-8.53532886505127,0.3196259140968323
1970-01-01 00:01:23.000,83038.0,-1.0516530871391296,-14.66448497772217,-1.923741102218628
1970-01-01 00:01:23.100,83138.0,-7.881113529205322,-16.39788818359375,-0.750582218170166
1970-01-01 00:01:23.200,83226.66666666667,-4.4198958079020185,-9.138667821884155,1.0139443902298806
1970-01-01 00:01:23.300,83338.0,-1.8501193523406985,-1.903390407562256,2.476801633834839
1970-01-01 00:01:23.400,83446.5,-1.0037690699100494,-8.45392620563507,-5.0948611199855804
1970-01-01 00:01:23.500,83538.0,-3.40874457359314,-9.765948295593262,-7.700949668884277
1970-01-01 00:01:23.600,83638.0,-2.330156683921814,-12.445060729980469,8.244433641433716
1970-01-01 00:01:23.700,83738.0,-2.750339269638061,-11.892000198364258,-0.8248024582862854
1970-01-01 00:01:23.800,83827.0,-1.6737465063730876,-7.423621495564778,-1.6364368200302124
1970-01-01 00:01:23.900,83938.0,0.5680243372917175,-4.963180065155029,-1.555034041404724
1970-01-01 00:01:24.000,84037.5,0.2340332269668579,-8.118737936019897,-0.38067807257175446
1970-01-01 00:01:24.100,84137.5,-2.9322986099869013,-10.520122528076172,-6.649895191192627
1970-01-01 00:01:24.200,84238.66666666667,-4.6561238169670105,-16.52717399597168,-0.47644612565636635
1970-01-01 00:01:24.300,84338.0,-5.242702960968018,-5.418078422546387,1.157596468925476
1970-01-01 00:01:24.400,84449.33333333333,-1.711255669593811,-2.134430766105652,1.4844050109386446
1970-01-01 00:01:24.500,84538.0,0.74040687084198,-7.489062786102295,-0.6667851805686951
1970-01-01 00:01:24.600,84638.5,-6.257844686508179,-13.76785659790039,-4.53461779654026
1970-01-01 00:01:24.700,84758.5,3.579930067062378,-15.433024406433104,1.0283095836639404
1970-01-01 00:01:24.800,84838.0,-2.375247597694397,-7.05012575785319,-1.2717201312383015
1970-01-01 00:01:24.900,84956.0,0.9080010056495668,-5.4659624099731445,-1.8351556062698364
1970-01-01 00:01:25.000,85039.5,-1.5424644351005554,-6.540959119796753,-0.0766144506633282
1970-01-01 00:01:25.100,85137.5,3.199252128601074,-8.468291282653809,-1.7345991134643557
1970-01-01 00:01:25.200,85204.0,-7.170035362243652,-25.07926368713379,-4.387374401092529
1970-01-01 00:01:25.300,85349.5,-3.7128082513809204,-9.739612340927124,-1.2318167984485626
1970-01-01 00:01:25.400,85497.5,-2.0644004344940186,-3.3207578659057617,1.5933412313461304
1970-01-01 00:01:25.500,85547.0,0.761954665184021,-6.89530086517334,-1.8064252138137815
1970-01-01 00:01:25.600,85668.0,-4.413511355717977,-10.51174259185791,-9.281123161315918
1970-01-01 00:01:25.700,85743.0,4.113837242126465,-9.646238327026367,7.255628108978271
1970-01-01 00:01:25.800,85824.0,-2.166153907775879,-12.765883445739746,0.4489127993583679
1970-01-01 00:01:25.900,85928.0,-3.360860586166382,-8.08282470703125,-0.7194576263427734
1970-01-01 00:01:26.000,86027.5,0.3381809890270233,-4.795586109161377,-0.5422866940498352
1970-01-01 00:01:26.100,86126.0,-2.343324899673462,-7.1490864753723145,-0.1879448294639587
1970-01-01 00:01:26.200,86241.0,0.7332242727279663,-14.027627944946289,-2.1930887699127197
1970-01-01 00:01:26.300,86339.0,0.345363587141037,-19.98200798034668,3.3937809467315674
1970-01-01 00:01:26.400,86427.33333333333,-0.6290765653053919,-16.42661762237549,-0.5015852451324463
1970-01-01 00:01:26.500,86570.5,-2.010530948638916,-9.6989107131958,1.3204022645950315
1970-01-01 00:01:26.600,86668.5,-1.4227543473243713,-1.290474772453308,1.5693992376327517
1970-01-01 00:01:26.700,86768.0,-0.3393780887126922,-1.256955862045288,-0.6332663297653198
1970-01-01 00:01:26.800,86834.8,-4.486933549245198,-11.862072229385376,-7.994638442993164
1970-01-01 00:01:26.900,86969.0,-8.144475936889648,-8.401253700256348,-7.078457355499268
1970-01-01 00:01:27.000,87051.5,5.6429338455200195,-12.774263620376587,4.323928356170654
1970-01-01 00:01:27.100,87198.0,-3.700837373733521,-6.636727333068848,-1.116895079612732
1970-01-01 00:01:27.200,87297.0,-4.059967517852783,-9.531316757202148,-0.5949591398239136
1970-01-01 00:01:27.300,87366.0,-3.195660710334778,-8.252813339233398,1.916558384895325
1970-01-01 00:01:27.400,87451.0,-1.668160080909729,-9.124302864074709,-0.3579331636428833
1970-01-01 00:01:27.500,87539.66666666667,-2.561197280883789,-9.470264911651611,0.5243301391601562
1970-01-01 00:01:27.600,87660.0,-1.5652093887329102,-9.909601211547852,-2.718616008758545
1970-01-01 00:01:27.700,87759.0,-1.7411832809448242,-17.061081409454346,3.8582561016082764
1970-01-01 00:01:27.800,87813.5,-1.0767922401428225,-15.375563621520996,-0.3244143426418304
1970-01-01 00:01:27.900,87911.0,2.095525026321411,-11.944672584533691,2.3594858646392822
1970-01-01 00:01:28.000,88033.5,-2.0871453881263733,-8.89445948600769,0.039504289627075195
1970-01-01 00:01:28.100,88144.66666666667,-2.697666803995768,-2.97838693857193,-0.6320692636072637
1970-01-01 00:01:28.200,88254.5,-1.567603588104248,-2.6384103298187256,-4.493916630744934
1970-01-01 00:01:28.300,88353.5,-5.470152258872986,-7.574057102203369,-8.013392925262451
1970-01-01 00:01:28.400,88454.0,-3.8947675228118896,-23.611618041992188,1.9620482921600344
1970-01-01 00:01:28.500,88568.5,-1.0348937064409256,-9.046491146087646,0.48722004890441895
1970-01-01 00:01:28.600,88633.33333333333,-3.2974143028259277,-8.889670848846436,-1.1001357038815816
1970-01-01 00:01:28.700,88762.33333333333,-1.8341580033302307,-9.962273120880127,-0.13287818431854248
1970-01-01 00:01:28.800,88804.0,-3.066373825073242,-8.841787338256836,0.2286462634801864
1970-01-01 00:01:28.900,88929.66666666667,-2.3505074977874756,-8.995015462239584,0.9097966849803925
1970-01-01 00:01:29.000,89081.0,-3.200449228286743,-11.025299072265623,-1.057040095329285
1970-01-01 00:01:29.100,89180.5,0.4890156984329223,-15.852009773254396,2.9101521968841557
1970-01-01 00:01:29.200,89279.0,2.7922377586364746,-15.334861755371094,4.049792289733887
1970-01-01 00:01:29.300,89358.0,-3.693654775619507,-11.996147632598877,-1.0654197633266451
1970-01-01 00:01:29.400,89464.0,-3.930680751800537,-5.556941986083984,0.707486629486084
1970-01-01 00:01:29.500,89529.0,-1.713649868965149,-4.079719543457031,-1.657984733581543
1970-01-01 00:01:29.600,89637.5,-1.1103110611438751,-1.4233529269695284,-6.010643482208252
1970-01-01 00:01:29.700,89725.0,-3.334524393081665,-1.620874524116516,-8.99621295928955
1970-01-01 00:01:29.800,89823.33333333333,-3.0029274821281433,-6.230909824371338,-4.1415698528289795
1970-01-01 00:01:29.900,89923.5,-4.270657062530518,-8.257601737976074,-4.531026840209961
1970-01-01 00:01:30.000,90035.5,-1.8620903939008713,-7.663839340209961,-3.5613750219345093
1970-01-01 00:01:30.100,90162.5,-1.2659341394901276,-7.502231121063232,-3.0202853679656982
1970-01-01 00:01:30.200,90254.0,-3.5643677711486816,-6.746860504150391,-2.254140853881836
1970-01-01 00:01:30.300,90353.0,-1.6035165786743164,-8.884882926940918,-0.5781996846199036
1970-01-01 00:01:30.400,90438.0,-1.0181342661380768,-15.188815593719482,2.164358377456665
1970-01-01 00:01:30.500,90551.0,-10.878653526306152,-13.053187370300291,-3.932476282119751
1970-01-01 00:01:30.600,90651.0,-6.475717067718506,-13.077129364013672,2.9436709880828857
1970-01-01 00:01:30.700,90772.0,-1.6753426268696785,-5.297171354293823,-1.1480197459459305
1970-01-01 00:01:30.800,90832.0,0.4124012291431427,-3.071760892868042,-0.5805938839912415
1970-01-01 00:01:30.900,90951.0,-0.4638765901327133,-2.127248167991638,-4.29519784450531
1970-01-01 00:01:31.000,91084.0,-11.97519874572754,-10.251971244812012,-1.169567584991455
1970-01-01 00:01:31.100,91182.5,-4.577115058898926,-13.785813331604004,-3.973177671432495
1970-01-01 00:01:31.200,91212.0,-0.2244564145803451,-7.970297336578369,-1.9979612827301023
1970-01-01 00:01:31.300,91332.33333333333,-1.4103842973709106,-7.995436668395996,-1.4484919905662537
1970-01-01 00:01:31.400,91480.0,-1.1198878288269043,-9.100360870361328,-0.4656722247600555
1970-01-01 00:01:31.500,91563.5,-1.4981716871261597,-11.010933876037598,-0.5590460896492004
1970-01-01 00:01:31.600,91614.66666666667,-1.490989089012146,-13.953407287597656,-1.666364312171936
1970-01-01 00:01:31.700,91724.0,0.3046621680259704,,
1970-01-01 00:01:31.800,91848.5,-2.619855225086212,-11.56279706954956,2.0566193759441376
1970-01-01 00:01:31.900,91924.0,-3.05679702758789,-5.700594425201416,-0.8463503122329712
1970-01-01 00:01:32.000,92039.0,-0.066439098212868,-3.47039532661438,-3.038241922855377
1970-01-01 00:01:32.100,92122.0,0.1490390598773956,-2.494758129119873,-5.459977149963379
1970-01-01 00:01:32.200,92238.0,-4.51486599445343,-6.678625822067261,-9.937134027481079
1970-01-01 00:01:32.300,92335.0,-5.501276969909668,-10.797849655151367,-2.4791958332061768
1970-01-01 00:01:32.400,92445.5,-1.1019313335418701,-9.248801231384277,-1.4903905391693115
1970-01-01 00:01:32.500,92551.0,-1.2874820232391355,-8.092401504516602,-1.138442873954773
1970-01-01 00:01:32.600,92650.0,-1.2156559228897097,-8.937555313110352,-0.4489128291606903
1970-01-01 00:01:32.700,92749.5,-2.8556840419769287,-8.947132110595703,-0.8631097078323364
1970-01-01 00:01:32.800,92834.5,-0.2867056131362915,-14.543578147888184,-1.0450689941644669
1970-01-01 00:01:32.900,92972.0,-3.9151182025671005,-14.821305274963379,2.9041666984558105
1970-01-01 00:01:33.000,93086.0,-2.8604724407196045,-12.526463508605955,0.1041477769613266
1970-01-01 00:01:33.100,93196.0,-0.9139865040779114,-7.2352776527404785,-2.232593059539795
1970-01-01 00:01:33.200,93284.0,-0.518943190574646,-2.3774423599243164,-1.9907786846160889
1970-01-01 00:01:33.300,93383.0,0.4818331003189087,-1.9345149993896484,-7.657854080200195
1970-01-01 00:01:33.400,93493.0,-1.062427043914795,-12.847286224365234,6.329071998596191
1970-01-01 00:01:33.500,93582.0,-1.469441294670105,-9.040505409240724,-2.184709072113037
1970-01-01 00:01:33.600,93674.0,-0.6865373253822327,-7.187393665313721,-2.457648038864136
1970-01-01 00:01:33.700,93723.0,-0.9044097065925598,-9.282320022583008,-2.890998601913452
1970-01-01 00:01:33.800,93831.5,-2.4295161366462708,-9.530119895935059,-1.3503297567367554
1970-01-01 00:01:33.900,93922.0,-3.339312791824341,-9.72285270690918,-0.7984662652015686
1970-01-01 00:01:34.000,94022.0,-1.3066356182098389,-12.607866287231444,-0.1089361757040023
1970-01-01 00:01:34.100,94138.0,0.6817489862442021,-14.300566673278809,1.4125789999961853
1970-01-01 00:01:34.200,94236.0,4.789001941680908,-15.401899337768556,3.67390251159668
1970-01-01 00:01:34.300,94365.66666666667,-0.7607576251029968,-8.56765079498291,-0.484825843013823
1970-01-01 00:01:34.400,94454.0,-1.8668787479400637,-5.640739440917969,-0.6859387755393982
1970-01-01 00:01:34.500,94565.33333333333,1.2072762151559193,-3.104082465171814,-1.9249382019042969
1970-01-01 00:01:34.600,94654.5,-2.3337481021881104,-9.009381294250488,-4.643554210662842
1970-01-01 00:01:34.700,94747.0,-5.946598529815674,-20.65717315673828,0.9876081943511964
1970-01-01 00:01:34.800,94838.33333333333,-0.9151836633682251,-7.990648031234741,-1.2952631115913393
1970-01-01 00:01:34.900,94973.0,-2.631826162338257,-8.203732252120972,-1.376665934920311
1970-01-01 00:01:35.000,95081.0,-3.0424318313598637,-8.798690795898438,0.4225766062736511
1970-01-01 00:01:35.100,95162.5,-1.3389572501182556,-8.208520412445068,-0.9935936927795411
1970-01-01 00:01:35.200,95293.0,-0.8301894664764404,-6.67982292175293,0.50876784324646
1970-01-01 00:01:35.300,95392.0,0.7140706777572632,-8.121131896972656,-0.7745242714881897
1970-01-01 00:01:35.400,95491.0,-8.51797103881836,-18.552669525146484,-3.908534288406372
1970-01-01 00:01:35.500,95592.0,0.8146271109580994,-12.646173477172852,-2.9676129817962646
1970-01-01 00:01:35.600,95659.0,-2.7742812633514404,-6.114790916442871,-0.4967968463897705
1970-01-01 00:01:35.700,95723.0,-3.2172086238861084,-4.367023944854736,0.302866518497467
1970-01-01 00:01:35.800,95828.0,-1.8429367740948994,-9.943917830785116,-6.777585963408153
1970-01-01 00:01:35.900,95921.0,-4.203619480133057,-12.270283699035645,-10.913968086242676
1970-01-01 00:01:36.000,96029.0,-2.5623943209648132,-13.488932371139525,-3.9803603291511536
1970-01-01 00:01:36.100,96154.5,-0.8409632444381714,-8.263587236404419,2.139219291508198
1970-01-01 00:01:36.200,96254.0,-2.793434858322144,-5.453991413116455,-2.4600422382354736
1970-01-01 00:01:36.300,96354.5,-0.6745663397014141,-8.031349658966064,-0.6536170542240143
1970-01-01 00:01:36.400,96454.0,-1.1773487329483032,-6.562506675720215,1.07379949092865
1970-01-01 00:01:36.500,96561.5,-0.9822211861610415,-12.373234272003174,-0.5207388997077942
1970-01-01 00:01:36.600,96654.5,-4.246715068817139,-22.58929252624512,-3.1423897743225098
1970-01-01 00:01:36.700,96765.0,-3.595492362976074,-10.024522542953491,1.6938976645469666
1970-01-01 00:01:36.800,96838.0,-3.376422882080078,-2.376245260238648,1.9333178400993347
1970-01-01 00:01:36.900,96961.5,-0.4447229504585266,-2.373851001262665,0.47644615173339855
1970-01-01 00:01:37.000,97061.0,-2.0632033348083496,-11.805809020996094,-8.56765079498291
1970-01-01 00:01:37.100,97160.0,-4.5519760847091675,-11.458649396896362,-1.4030021727085114
1970-01-01 00:01:37.200,97274.0,0.10594342648983,-19.65160751342773,-3.7385458946228023
1970-01-01 00:01:37.300,97376.0,-3.0591912269592285,-13.295001983642578,-2.3116016387939453
1970-01-01 00:01:37.400,97455.0,-2.78625226020813,-7.539340972900391,-0.8439561128616333
1970-01-01 00:01:37.500,97555.5,-0.8242039531469345,-6.764816999435425,-0.5578489899635315
1970-01-01 00:01:37.600,97645.0,1.449090600013733,-10.572794914245604,0.3196259140968323
1970-01-01 00:01:37.700,97712.0,-0.0496796853840351,-5.808333396911621,-0.6404489278793335
1970-01-01 00:01:37.800,97806.0,-7.016806602478027,-21.68428421020508,0.5542576909065247
1970-01-01 00:01:37.900,97904.0,-3.425503969192505,-14.94460678100586,-0.992396593093872
1970-01-01 00:01:38.000,98003.0,-3.1142578125,-3.378218650817871,1.7274165153503418
1970-01-01 00:01:38.100,98129.0,-0.31304186582565297,-5.438429117202759,-1.027112603187561
1970-01-01 00:01:38.200,98250.0,-3.116652011871338,-12.083536148071287,-8.646659851074219
1970-01-01 00:01:38.300,98350.0,-2.66773921251297,-14.23113489151001,-1.1743558645248413
1970-01-01 00:01:38.400,98447.0,-0.5045779943466187,-14.460978507995604,1.701080322265625
1970-01-01 00:01:38.500,98547.0,-3.897161722183228,-6.962338447570801,-0.3435679376125335
1970-01-01 00:01:38.600,98648.0,-0.5428852438926697,-5.592854976654053,-1.1982979774475098
1970-01-01 00:01:38.700,98734.0,-0.3238157629966736,-8.61433744430542,0.31364041566848755
1970-01-01 00:01:38.800,98844.0,0.5536591410636902,-10.15141487121582,-1.1456254720687866
1970-01-01 00:01:38.900,98945.0,-5.648520350456238,-15.245079517364502,-1.9560627341270447
1970-01-01 00:01:39.000,99047.0,-1.5269020795822144,-13.565546989440918,-2.3738510608673096
1970-01-01 00:01:39.100,99145.0,-2.7335798144340515,-5.498284101486206,1.2593500912189484
1970-01-01 00:01:39.200,99245.0,-1.1222820281982422,-2.33913516998291,-0.5207388401031494
1970-01-01 00:01:39.300,99356.33333333333,-3.9043444991111755,-7.230489095052083,-4.084508061408997
1970-01-01 00:01:39.400,99445.5,-7.493252754211426,-9.974244117736816,-7.370550155639648
1970-01-01 00:01:39.500,99556.33333333333,3.5998814900716147,-9.368511080741882,4.344279050827026
1970-01-01 00:01:39.600,99645.0,-2.3145945072174072,-9.86650562286377,4.315548419952393
1970-01-01 00:01:39.700,99720.0,-1.7280150651931765,-14.587870597839355,-1.0115501880645752
1970-01-01 00:01:39.800,99816.66666666667,-3.316567897796631,-7.115567445755005,-2.955641984939575
1970-01-01 00:01:39.900,99952.0,-2.379237949848175,-8.473079919815063,-2.4073697328567505
1970-01-01 00:01:40.000,100049.5,0.1155202314257621,-6.574477910995483,-1.382651448249817
1970-01-01 00:01:40.100,100151.5,-0.773925706744194,-9.982624053955078,-0.0023941993713378906
1970-01-01 00:01:40.200,100248.0,-2.144606113433838,-10.280701637268066,-0.3890577852725982
1970-01-01 00:01:40.300,100348.0,-0.7200561761856079,-11.11987018585205,0.015562295913696289
1970-01-01 00:01:40.400,100447.0,-5.549160957336426,-14.733917236328123,0.3746925592422485
1970-01-01 00:01:40.500,100546.0,-1.2072762623429298,-15.843629360198975,1.0785878337919712
1970-01-01 00:01:40.600,100646.0,-0.9977835416793824,-10.81460952758789,1.4401123523712158
1970-01-01 00:01:40.700,100756.0,-1.4263456463813782,-2.749740779399872,2.1416133642196655
1970-01-01 00:01:40.800,100835.5,-2.9191304445266724,-4.125209450721741,-2.211045265197754
1970-01-01 00:01:40.900,100933.66666666667,-7.302514712015788,-8.341398477554321,-8.190564155578613
1970-01-01 00:01:41.000,101045.5,7.721899032592773,-21.562179565429688,6.98508358001709
1970-01-01 00:01:41.100,101160.0,0.961870551109314,-7.250839948654175,4.531026691198349
1970-01-01 00:01:41.200,101245.0,-3.3943793773651123,-4.797980308532715,-2.6013002395629883
1970-01-01 00:01:41.300,101345.0,-2.5623944401741032,-9.90122103691101,-1.9871874153614044
1970-01-01 00:01:41.400,101445.0,-2.1326351165771484,-7.824251174926758,1.3922282457351685
1970-01-01 00:01:41.500,101553.25,-1.1071188002824783,-8.854955196380615,1.5322891026735308
1970-01-01 00:01:41.600,101654.5,-2.500145196914673,-12.212822914123535,1.0546458959579468
1970-01-01 00:01:41.700,101755.5,3.3381156027317047,-14.317326068878174,3.9564181566238403
1970-01-01 00:01:41.800,101821.0,-4.682459831237793,-16.733076095581055,6.8342485427856445
1970-01-01 00:01:41.900,101951.0,-3.318962037563324,-11.747150897979736,0.5722141861915588
1970-01-01 00:01:42.000,102050.0,-2.5779566764831543,-8.001421928405762,-1.2102689743041992
1970-01-01 00:01:42.100,102149.5,-2.1338322162628174,-3.2369606494903564,-2.1703438758850098
1970-01-01 00:01:42.200,102248.0,0.1729810684919357,-1.874659895896912,-5.270834922790527
1970-01-01 00:01:42.300,102339.0,-5.674457520246506,-22.782026290893555,-3.9157168865203857
1970-01-01 00:01:42.400,102447.5,-0.16819262504577637,-4.259284973144531,9.194931983947754
1970-01-01 00:01:42.500,102517.0,-1.5580267906188965,-9.667786598205566,-2.0697872638702397
1970-01-01 00:01:42.600,102651.33333333333,-0.9052077531814575,-9.083601474761963,-0.9939927657445272
1970-01-01 00:01:42.700,102751.0,-4.328118324279785,-8.999804496765137,-0.4991910457611084
1970-01-01 00:01:42.800,102844.0,-2.1218612492084503,-9.50617790222168,0.5841852203011513
1970-01-01 00:01:42.900,102943.0,-2.027290344238281,-11.063606262207031,0.0466869324445724
1970-01-01 00:01:43.000,103042.0,-3.291428864002228,-14.641740322113037,-2.560598850250244
1970-01-01 00:01:43.100,103158.0,2.9454667568206787,-11.693281173706056,
1970-01-01 00:01:43.200,103259.5,-2.9334956407546997,-12.05001735687256,-3.132812976837158
1970-01-01 00:01:43.300,103356.0,-1.2611457109451294,-9.081207275390623,-1.5717934370040894
1970-01-01 00:01:43.400,103455.5,-2.1493945121765137,-3.35667085647583,-1.456871747970581
1970-01-01 00:01:43.500,103554.0,1.1522095203399658,-1.2186486721038818,-7.952341079711914
1970-01-01 00:01:43.600,103627.66666666667,-4.694431245326996,-10.94030475616455,3.0370447635650635
1970-01-01 00:01:43.700,103752.0,-6.78696346282959,-12.84010410308838,-2.618059635162353
1970-01-01 00:01:43.800,103819.0,1.4347254037857056,-8.462305545806885,-2.2972364425659184
1970-01-01 00:01:43.900,103934.0,-0.1310825496912002,-8.279149055480957,-0.973242998123169
1970-01-01 00:01:44.000,104047.5,0.17178398370742787,-9.743204116821287,-1.1001356840133667
1970-01-01 00:01:44.100,104199.0,-1.9841946363449097,-9.737217903137209,-1.1743559837341309
1970-01-01 00:01:44.200,104288.0,-3.633799552917481,-14.099453926086426,2.0937294960021973
1970-01-01 00:01:44.300,104347.0,0.5129576921463013,-12.45463752746582,-0.0203507151454687
1970-01-01 00:01:44.400,104430.66666666667,-2.2427685062090554,-13.764265537261963,2.371456801891327
1970-01-01 00:01:44.500,104546.0,-1.4574702978134155,-7.908048152923584,-3.0777463912963867
1970-01-01 00:01:44.600,104661.33333333333,-0.2687491290271282,-3.4931403398513794,-1.954865723848343
1970-01-01 00:01:44.700,104743.0,-0.1502361595630645,-3.00711727142334,-5.373785495758057
1970-01-01 00:01:44.800,104826.0,-2.891597032546997,-1.0606313943862915,-5.084087371826172
1970-01-01 00:01:44.900,104926.0,-5.55634355545044,-2.5091233253479004,-3.925293684005737
1970-01-01 00:01:45.000,105040.0,-0.7535749971866608,-9.73362684249878,-1.2892776727676392
1970-01-01 00:01:45.100,105142.0,-1.2635399103164673,-9.26795482635498,-1.533486247062683
1970-01-01 00:01:45.200,105239.5,-1.2204443737864494,-8.650250911712646,-0.6799532771110535
1970-01-01 00:01:45.300,105358.5,-0.1909375786781311,-9.971850395202637,-0.7817068696022034
1970-01-01 00:01:45.400,105457.5,-1.3760673999786377,-15.91425895690918,-2.515108823776245
1970-01-01 00:01:45.500,105556.5,-0.5979518890380859,-12.097901344299316,1.095347285270691
1970-01-01 00:01:45.600,105638.0,-3.9522284269332886,-12.140996932983398,0.12689270079135895
1970-01-01 00:01:45.700,105754.5,-1.852513551712036,-7.570465564727783,-0.6141127347946167
1970-01-01 00:01:45.800,105835.5,0.49739539623260504,-1.8453309237957,-4.248510926961899
1970-01-01 00:01:45.900,105953.0,0.5895721912384033,-1.5897499322891235,-7.985859870910644
1970-01-01 00:01:46.000,106039.0,-1.5101426839828491,-11.853692293167114,2.6575638949871063
1970-01-01 00:01:46.100,106144.5,-1.7232266664505005,-11.4849853515625,-1.9069817066192627
1970-01-01 00:01:46.200,106256.0,-1.3305776119232178,-9.386467933654785,-0.7565677464008331
1970-01-01 00:01:46.300,106346.0,-1.0169371366500854,-8.283937454223633,-1.380257248878479
1970-01-01 00:01:46.400,106440.0,-2.024896025657654,-7.759607791900635,-0.6751648932695389
1970-01-01 00:01:46.500,106545.0,-3.0160956382751465,-12.969390869140623,0.2693476974964142
1970-01-01 00:01:46.600,106652.5,-3.63379967212677,-13.591883182525635,-2.048239529132843
1970-01-01 00:01:46.700,106742.0,3.6828808784484863,-16.88630485534668,3.4177229404449463
1970-01-01 00:01:46.800,106830.0,0.12908737858136496,-12.146982669830322,-0.19632455706596375
1970-01-01 00:01:46.900,106966.0,-1.1043255031108856,-6.0621185302734375,-1.4149731993675232
1970-01-01 00:01:47.000,107073.0,-1.2084733247756958,-3.25611424446106,-1.4640543460845947
1970-01-01 00:01:47.100,107139.0,0.1897404789924621,-1.6855180263519287,-4.341884613037109
1970-01-01 00:01:47.200,107240.0,-3.511695444583893,-14.245499849319458,-20.57576847076416
1970-01-01 00:01:47.300,107360.5,1.0875661373138428,-3.134010076522827,-3.3614592552185063
1970-01-01 00:01:47.400,107459.5,-1.6621745228767395,-10.06043529510498,-2.7114334106445312
1970-01-01 00:01:47.500,107559.0,-2.321777105331421,-7.292738437652588,-2.649184226989746
1970-01-01 00:01:47.600,107658.0,-0.4327519536018371,-9.62947940826416,-1.7729063034057615
1970-01-01 00:01:47.700,107738.0,-1.5963339805603027,-9.02135181427002,-0.8846575617790222
1970-01-01 00:01:47.800,107837.0,-1.8453309535980225,-9.406818389892578,-0.8104372620582581
1970-01-01 00:01:47.900,107938.5,-1.613093376159668,-9.3134446144104,-1.6675615310668945
1970-01-01 00:01:48.000,108054.0,-1.3138182163238523,-8.698134422302246,-0.889445960521698
1970-01-01 00:01:48.100,108155.0,-1.6214731335639954,-8.337807655334473,1.1324573755264282
1970-01-01 00:01:48.200,108298.0,1.2336124181747437,-10.1753568649292,0.0562637411057949
1970-01-01 00:01:48.300,108395.0,-6.006453514099121,-16.936582565307617,0.0131681095808744
1970-01-01 00:01:48.400,108444.0,-1.3569138050079346,-14.044386863708496,-1.701080322265625
1970-01-01 00:01:48.500,108552.5,-3.156156301498413,-8.072051048278809,0.40701431035995483
1970-01-01 00:01:48.600,108644.0,-3.1884782314300537,-3.699041604995728,-0.3124433159828186
1970-01-01 00:01:48.700,108751.5,-2.1613656282424927,-4.491522312164307,-0.7469909191131592
1970-01-01 00:01:48.800,108828.0,2.9550435543060303,-14.27662467956543,-11.462240219116213
1970-01-01 00:01:48.900,108942.33333333333,-6.2817865908145905,-15.233108043670654,-4.54299783706665
1970-01-01 00:01:49.000,109039.0,3.146579504013061,-16.306907653808594,5.426458358764648
1970-01-01 00:01:49.100,109149.0,-1.4909892082214355,-7.184999465942383,3.066972479224205
1970-01-01 00:01:49.200,109239.0,-2.1757307052612305,-6.782773494720459,-1.5693992376327517
1970-01-01 00:01:49.300,109355.33333333333,-0.7703344523906708,-7.857769966125488,-1.5071499347686768
1970-01-01 00:01:49.400,109470.0,-1.6370353698730469,-6.744466304779053,0.6667851805686951
1970-01-01 00:01:49.500,109538.5,0.9331400692462921,-9.579201221466064,0.28491002321243286
1970-01-01 00:01:49.600,109668.0,-2.4007856845855717,-18.339584350585938,-4.181473255157471
1970-01-01 00:01:49.700,109738.5,-2.5779566764831543,-14.640543460845947,-1.0546458959579468
1970-01-01 00:01:49.800,109819.5,-4.00729501247406,-4.108449935913086,1.7130513191223145
1970-01-01 00:01:49.900,109938.5,-1.933916449546814,-3.0059202909469604,0.6560112684965134
1970-01-01 00:01:50.000,110063.0,1.731606364250183,-7.771578788757324,-3.714603900909424
1970-01-01 00:01:50.100,110154.0,-3.227982521057129,-8.920795440673828,-5.570110321044922
1970-01-01 00:01:50.200,110245.0,1.0372878313064575,-26.652254104614254,-1.7896658182144165
1970-01-01 00:01:50.300,110354.5,0.5644330382347107,-10.660183191299438,0.5997476577758789
1970-01-01 00:01:50.400,110442.0,-2.384026288986206,-6.612784862518311,-0.6955155730247498
1970-01-01 00:01:50.500,110551.0,0.474650502204895,-6.831854581832886,-1.598129624966532
1970-01-01 00:01:50.600,110643.0,1.1737574338912964,-8.061277389526367,-0.5781996846199036
1970-01-01 00:01:50.700,110731.33333333333,0.7156667709350586,-10.357316493988037,0.5530605912208558
1970-01-01 00:01:50.800,110842.0,-5.652111530303955,-12.11705493927002,-0.0107739074155688
1970-01-01 00:01:50.900,110952.0,-3.1202434301376343,-10.589554071426392,-0.6488286405801773
1970-01-01 00:01:51.000,111038.0,-3.779845952987671,-4.910507678985596,1.2509703636169434
1970-01-01 00:01:51.100,111127.0,-1.974617838859558,-4.613626480102539,1.1264718770980835
1970-01-01 00:01:51.200,111226.0,-0.1622071713209152,-4.747702121734619,-0.9756371974945068
1970-01-01 00:01:51.300,111349.33333333333,-5.3935379187266035,-12.172121524810791,-7.065289258956909
1970-01-01 00:01:51.400,111438.0,-0.9187749028205872,-5.228936672210693,6.853402137756348
1970-01-01 00:01:51.500,111538.5,-1.2479774951934814,-12.144588232040405,-0.8690952658653259
1970-01-01 00:01:51.600,111665.5,-0.6482301293872297,-7.407660007476807,-1.92134690284729
1970-01-01 00:01:51.700,111738.5,-1.1893197298049927,-7.6518683433532715,-0.8655039370059967
1970-01-01 00:01:51.800,111802.5,-0.2699462473392486,-8.29830265045166,1.069011092185974
1970-01-01 00:01:51.900,111926.66666666667,-0.9175778031349184,-10.84094500541687,0.10893619060516357
1970-01-01 00:01:52.000,112045.0,-11.079767227172852,-13.637372970581056,-2.273294448852539
1970-01-01 00:01:52.100,112145.5,-4.137779235839844,-11.256339311599731,-0.9241617992520332
1970-01-01 00:01:52.200,112248.0,-1.5771803855895996,-6.7492547035217285,0.2166752517223358
1970-01-01 00:01:52.300,112354.5,-1.94469028711319,-3.398569345474243,-1.5059528648853302
1970-01-01 00:01:52.400,112495.0,-2.893991231918335,-4.853046894073486,-4.016273498535156
1970-01-01 00:01:52.500,112574.0,-5.817311763763428,-7.0988078117370605,-6.233304023742676
1970-01-01 00:01:52.600,112641.0,-9.360730171203612,-7.1490864753723145,-7.399280548095703
1970-01-01 00:01:52.700,112741.5,3.939060688018799,-9.52772557735443,-3.086125910282135
1970-01-01 00:01:52.800,112855.0,-1.5185224413871765,-8.328230619430542,-3.7744590044021606
1970-01-01 00:01:52.900,112926.0,0.2711433470249176,-8.370129585266113,-4.581305027008057
1970-01-01 00:01:53.000,113035.5,-2.464232087135315,-7.86854362487793,-2.47560453414917
1970-01-01 00:01:53.100,113126.5,-1.4598644971847534,-7.503427982330322,-0.750582218170166
1970-01-01 00:01:53.200,113242.66666666667,-0.48901567049324524,-8.882488489151001,-0.3172317147254944
1970-01-01 00:01:53.300,113338.0,-2.18770170211792,-8.932766914367676,0.3818751573562622
1970-01-01 00:01:53.400,113451.5,-5.850830554962158,-11.896788597106934,0.07302315533161163
1970-01-01 00:01:53.500,113535.0,-2.8652608394622803,-12.97657299041748,1.3754688501358032
1970-01-01 00:01:53.600,113634.5,-1.9159598797559736,-13.587094783782959,0.35434185341000557
1970-01-01 00:01:53.700,113781.66666666667,-0.5141548315684,-7.344213962554931,-0.053869538009166745
1970-01-01 00:01:53.800,113850.0,-1.8668788075447083,-2.6743233203887944,0.5566519163548945
1970-01-01 00:01:53.900,113972.5,-2.889202833175659,-5.127182722091675,-6.009446442127228
1970-01-01 00:01:54.000,114063.0,-4.440645694732666,-14.393940925598145,-11.026495933532717
1970-01-01 00:01:54.100,114176.5,-7.836820721626282,-24.69858407974243,8.631097227334976
1970-01-01 00:01:54.200,114279.5,-7.162852764129639,-17.1376953125,-3.712209701538086
1970-01-01 00:01:54.300,114379.0,-3.116652011871338,-6.627150535583496,-4.231751441955566
1970-01-01 00:01:54.400,114478.0,-0.0808043107390403,-8.034940719604492,0.4632780253887176
1970-01-01 00:01:54.500,114560.0,-2.4582466781139374,-8.719682693481445,1.5310919284820557
1970-01-01 00:01:54.600,114676.0,-2.721608877182007,-10.522516250610352,-0.0754173547029495
1970-01-01 00:01:54.700,114726.0,1.753154158592224,-17.07544708251953,3.0370447635650635
1970-01-01 00:01:54.800,114826.0,-2.7766754627227783,-10.524910926818848,2.1535844802856445
1970-01-01 00:01:54.900,114923.0,-0.6530185341835022,-14.255077362060549,4.99550199508667
1970-01-01 00:01:55.000,115024.0,-1.5269020795822144,-11.580753326416016,-0.4273650050163269
1970-01-01 00:01:55.100,115119.0,1.082777738571167,-11.128249168395996,0.2956839203834533
1970-01-01 00:01:55.200,115244.5,-1.534084714949131,-3.618835926055908,-1.6017209812998772
1970-01-01 00:01:55.300,115336.0,0.8242039084434509,-3.6966474056243896,-6.391321659088135
1970-01-01 00:01:55.400,115433.66666666667,-2.675320863723755,-5.6527099609375,-3.116053581237793
1970-01-01 00:01:55.500,115550.0,0.3333925902843475,-4.8602294921875,5.311536312103272
1970-01-01 00:01:55.600,115647.5,-2.6186580657958984,-6.995857238769531,-1.662773072719574
1970-01-01 00:01:55.700,115747.0,0.1993172913789749,-10.139444351196287,-0.6667851805686951
1970-01-01 00:01:55.800,115838.5,-2.215235114097595,-9.698911190032959,-0.5015852600336075
1970-01-01 00:01:55.900,115962.0,-2.437895894050598,-9.578003883361816,0.4273650050163269
1970-01-01 00:01:56.000,116063.0,-0.2340332120656967,-10.931924819946287,1.1192892789840698
1970-01-01 00:01:56.100,116162.0,-2.750339150428772,-13.722367286682129,-1.335964560508728
1970-01-01 00:01:56.200,116283.0,-0.1119289323687553,-10.436325073242188,-1.2653355598449707
1970-01-01 00:01:56.300,116381.0,-2.362478494644165,-13.54399871826172,2.086546897888184
1970-01-01 00:01:56.400,116480.0,-0.253186821937561,-9.100360870361328,-1.9548656940460205
1970-01-01 00:01:56.500,116579.0,-1.5005658864974976,-4.077325344085693,-1.238999366760254
1970-01-01 00:01:56.600,116678.0,0.6518214344978333,-2.1954829692840576,-5.294776916503906
1970-01-01 00:01:56.700,116749.5,-1.9111714512109756,-7.738059997558593,-12.794613361358643
1970-01-01 00:01:56.800,116839.0,-6.839635848999023,-10.314221382141112,-2.175132274627685
1970-01-01 00:01:56.900,116926.0,-1.9051860570907595,-12.42351245880127,-3.8343141078948975
1970-01-01 00:01:57.000,117020.0,-0.6817489266395569,-7.891288757324219,-2.562992811203003
1970-01-01 00:01:57.100,117119.0,-1.0097545385360718,-8.844181060791016,-1.2844891548156738
1970-01-01 00:01:57.200,117243.5,-1.0743979811668396,-9.175777912139893,-0.9097966253757477
1970-01-01 00:01:57.300,117335.5,-1.8824410438537595,-8.121131896972656,-0.9038111567497252
1970-01-01 00:01:57.400,117433.0,-2.9027699629465737,-14.051569938659668,-0.6117185242474079
1970-01-01 00:01:57.500,117532.0,-3.863642930984497,-12.887988090515137,-1.5717934370040894
1970-01-01 00:01:57.600,117624.0,-1.8038314133882523,-11.795034408569336,-0.43095624446868896
1970-01-01 00:01:57.700,117773.0,-1.1462240815162659,-5.250484466552734,-1.6101006269454956
1970-01-01 00:01:57.800,117841.33333333333,-0.3521471619606018,-1.7717092633247375,-4.0078935623168945
1970-01-01 00:01:57.900,117965.5,-3.263895481824875,-2.6024972796440125,-11.978190898895264
1970-01-01 00:01:58.000,118051.0,-8.922591209411621,-29.55402565002441,-6.470330238342285
1970-01-01 00:01:58.100,118165.0,-1.6633716225624082,-9.781510829925537,-1.745373070240021
1970-01-01 00:01:58.200,118210.0,-0.3824737071990967,-7.572859764099121,-1.6172832250595093
1970-01-01 00:01:58.300,118350.5,-0.6817489266395569,-8.845378160476685,-1.4532803893089294
1970-01-01 00:01:58.400,118490.0,-2.367266893386841,-8.003816604614258,-0.21188685297966
1970-01-01 00:01:58.500,118591.0,-1.9506758451461792,-11.274295806884766,-0.8176198601722717
1970-01-01 00:01:58.600,118690.0,-3.336918592453003,-15.145719528198242,-0.1975216418504715
1970-01-01 00:01:58.700,118733.0,1.1055226922035217,-14.52442455291748,2.742558002471924
1970-01-01 00:01:58.800,118822.0,-5.522824764251709,-11.530475616455078,0.9421183466911316
1970-01-01 00:01:58.900,118955.0,-1.408389151096344,-7.328651428222656,-1.404199302196503
1970-01-01 00:01:59.000,119053.0,-0.8900445103645325,-2.315192937850952,-2.122459888458252
1970-01-01 00:01:59.100,119118.0,1.0971429347991943,-3.095702886581421,-5.704185485839844
1970-01-01 00:01:59.200,119220.0,-4.105457305908203,-9.983820915222168,-21.8435001373291
1970-01-01 00:01:59.300,119318.0,-5.594650745391846,-13.637372970581056,-1.7393875122070312
1970-01-01 00:01:59.400,119445.75,-0.8357759118080139,-8.288726329803467,-0.8192160228888193
1970-01-01 00:01:59.500,119553.0,-0.6817489266395569,-8.635885238647461,-0.829590916633606
1970-01-01 00:01:59.600,119651.0,-1.490989089012146,-8.863334655761719,-0.2262520641088485
1970-01-01 00:01:59.700,119758.0,-2.194884419441223,-12.15177059173584,-0.7876923456788063
1970-01-01 00:01:59.800,119832.0,-3.4302923679351807,-14.735114574432373,-0.24779987335205075
1970-01-01 00:01:59.900,119950.0,-3.0998926162719727,-11.173739433288574,-0.5183446407318115
1970-01-01 00:02:00.000,120033.25,-0.575605987260739,-10.934319019317627,0.008379697799682395
1970-01-01 00:02:00.100,120179.0,-0.9917980432510376,-5.695805907249451,-1.4951789379119873
1970-01-01 00:02:00.200,120276.0,-0.760757565498352,-3.9193081855773926,-2.021903276443481
1970-01-01 00:02:00.300,120363.0,-0.33937810361385345,-2.8874071836471558,-6.734889507293701
1970-01-01 00:02:00.400,120475.0,-3.5500025749206543,-7.948749542236328,-24.189817428588867
1970-01-01 00:02:00.500,120558.0,-2.557606056332588,-10.326191902160645,-2.2206220626831055
1970-01-01 00:02:00.600,120691.0,-0.6386532783508301,-6.7923502922058105,-2.455253839492798
1970-01-01 00:02:00.700,120787.0,-2.2619221210479736,-9.880870819091797,-2.258929252624512
1970-01-01 00:02:00.800,120805.0,-2.4199392795562744,-9.33499240875244,-0.2454056739807129
1970-01-01 00:02:00.900,120904.0,-3.2746694087982178,-9.100360870361328,-0.5159504413604736
1970-01-01 00:02:01.000,121006.0,-2.022501945495605,-9.14345645904541,-0.3866635859012604
1970-01-01 00:02:01.100,121102.0,-0.6290764808654785,-10.35252857208252,-0.0490811355412006
1970-01-01 00:02:01.200,121236.0,-2.237980037927628,-11.908759593963623,-1.5921441912651062
1970-01-01 00:02:01.300,121319.0,4.678868770599365,-11.93509578704834,1.1887211799621582
1970-01-01 00:02:01.400,121435.0,-0.7906851172447205,-12.227188110351562,0.045489817857742254
1970-01-01 00:02:01.500,121535.5,-1.3808557987213135,-11.63342571258545,-1.6124948263168335
1970-01-01 00:02:01.600,121641.0,-2.449866831302643,-4.923675894737244,-0.14604632556438446
1970-01-01 00:02:01.700,121749.0,-2.870049238204956,-2.9089550971984863,0.5758054852485657
1970-01-01 00:02:01.800,121847.0,0.1993172913789749,-5.801150798797607,-0.9828197956085204
1970-01-01 00:02:01.900,121971.5,-4.944624900817871,-17.53154182434082,-7.292738199234009
1970-01-01 00:02:02.000,122061.0,3.007715940475464,-6.754043102264404,3.886986494064331
1970-01-01 00:02:02.100,122177.0,-2.952649235725403,-10.12627649307251,-0.11611878871917725
1970-01-01 00:02:02.200,122258.0,-1.5963339805603027,-8.59997272491455,-0.5135562419891357
1970-01-01 00:02:02.300,122382.0,-1.2036849111318588,-6.994660377502441,1.1827356219291687
1970-01-01 00:02:02.400,122479.5,-1.2611457109451294,-10.046070098876951,0.3818751573562622
1970-01-01 00:02:02.500,122573.0,-0.9235633015632628,-9.854534149169922,-1.7920600175857544
1970-01-01 00:02:02.600,122672.0,0.1035492271184921,-17.496826171875,-2.304419040679932
1970-01-01 00:02:02.700,122756.0,-0.9151836037635803,-14.872780799865723,-0.9660603702068329
1970-01-01 00:02:02.800,122837.0,-4.48134708404541,-2.5330653190612797,1.5622166395187378
1970-01-01 00:02:02.900,122955.5,-1.9626468320687611,-3.430092990398407,1.9440918564796448
1970-01-01 00:02:03.000,123077.0,-3.5152865648269653,-11.170147895812988,-8.171410322189331
1970-01-01 00:02:03.100,123151.0,-6.099827289581299,-17.37711524963379,-1.681926727294922
1970-01-01 00:02:03.200,123258.5,0.20769700407981873,-13.346477508544922,1.640028178691864
1970-01-01 00:02:03.300,123366.0,-5.570708751678467,-6.145915985107422,-1.6723499298095703
1970-01-01 00:02:03.400,123432.0,-1.5364789962768557,-6.866570472717285,-1.3012486696243286
1970-01-01 00:02:03.500,123533.5,-0.6290764808654783,-6.447585344314575,-0.014365196228027344
1970-01-01 00:02:03.600,123631.5,2.6102784276008606,-8.068459510803223,2.3738510608673096
1970-01-01 00:02:03.700,123747.5,-1.1390414834022522,-16.245855569839478,-1.7705121040344238
1970-01-01 00:02:03.800,123851.0,-3.3417069911956787,-18.684349536895752,1.291671872138977
1970-01-01 00:02:03.900,123961.0,-3.839700937271118,-5.961562156677246,-0.6548141837120056
1970-01-01 00:02:04.000,124061.0,0.12749123945832255,-2.042254090309143,0.8283937871456146
1970-01-01 00:02:04.100,124160.0,-0.8708908557891846,-6.943184852600098,-1.895010590553284
1970-01-01 00:02:04.200,124266.5,-4.211999177932739,-17.265785217285156,-4.75847601890564
1970-01-01 00:02:04.300,124358.0,5.789778232574463,-3.512293815612793,7.258022308349609
1970-01-01 00:02:04.400,124472.5,-3.3548752069473267,-10.16338586807251,-1.194706678390503
1970-01-01 00:02:04.500,124556.0,-1.0672154426574707,-7.196970462799072,-1.3634978532791138
1970-01-01 00:02:04.600,124655.5,0.3465607073158025,-6.952761650085449,-1.4856021404266357
1970-01-01 00:02:04.700,124771.0,1.0396820306777954,-7.196970462799072,-0.120907187461853
1970-01-01 00:02:04.800,124852.0,-6.341641664505005,-18.398242473602295,-3.3111809492111206
1970-01-01 00:02:04.900,124968.5,-0.26396073400974274,-15.195998191833496,-2.060210466384888
1970-01-01 00:02:05.000,125018.0,-3.078344821929932,-5.044582843780518,0.0849941596388816
1970-01-01 00:02:05.100,125142.5,-1.182137072086334,-2.4205378890037537,0.8762778639793396
1970-01-01 00:02:05.200,125233.0,-3.2531216144561768,-16.6612491607666,-12.14937686920166
1970-01-01 00:02:05.300,125333.0,-5.72513484954834,-13.297396183013916,-5.815515995025635
1970-01-01 00:02:05.400,125431.0,0.1777694821357727,-16.314090728759766,5.366602897644043
1970-01-01 00:02:05.500,125547.0,-1.8541097342967987,-9.006986618041992,1.1049241423606873
1970-01-01 00:02:05.600,125630.0,-1.775899052619934,-7.0317702293396,-0.8319851160049438
1970-01-01 00:02:05.700,125737.0,0.0772130042314529,-7.766790390014648,-0.43095633387565624
1970-01-01 00:02:05.800,125834.5,-0.6637924313545228,-8.734047889709473,-0.21428105235099792
1970-01-01 00:02:05.900,125943.0,1.8465280532836916,-9.289502143859863,-0.7745242714881897
1970-01-01 00:02:06.000,126041.0,-3.6577415466308594,-16.249446868896484,0.3746925592422485
1970-01-01 00:02:06.100,126142.0,-1.1007342338562012,-13.441048622131348,0.3004723191261291
1970-01-01 00:02:06.200,126266.0,-1.5496470928192139,-3.5553895235061646,0.4884171634912491
1970-01-01 00:02:06.300,126355.0,-1.3305776119232178,-4.311957359313965,-2.7928361892700195
1970-01-01 00:02:06.400,126456.0,-4.13179349899292,-6.91804575920105,-5.8657941818237305
1970-01-01 00:02:06.500,126586.5,-4.924274325370789,-5.279214859008789,2.8790276050567627
1970-01-01 00:02:06.600,126671.0,1.1641805171966553,-1.4844050407409668,4.720168590545654
1970-01-01 00:02:06.700,126778.5,-0.5596446394920349,-9.097966194152832,-1.6388310194015503
1970-01-01 00:02:06.800,126860.5,-3.265092611312866,-8.418013334274292,-0.5231330618262291
1970-01-01 00:02:06.900,126976.0,-2.163759708404541,-9.988609313964844,-0.5398924946784973
1970-01-01 00:02:07.000,127051.5,-0.74040687084198,-9.14345645904541,0.11731588840484619
1970-01-01 00:02:07.100,127166.5,-2.3720552921295166,-9.17936897277832,-0.2573766708374023
1970-01-01 00:02:07.200,127230.0,0.7739257216453552,-14.444218635559082,-1.234210968017578
1970-01-01 00:02:07.300,127315.0,2.8185739517211914,-13.04361057281494,-0.3387795388698578
1970-01-01 00:02:07.400,127416.0,-1.9913772344589236,-16.59421157836914,2.603694438934326
1970-01-01 00:02:07.500,127514.0,-1.7016788721084597,-12.20803451538086,1.7489643096923828
1970-01-01 00:02:07.600,127613.0,-2.012925148010254,-4.28322696685791,0.9756371974945068
1970-01-01 00:02:07.700,127737.5,-2.8341363668441772,-6.8115036487579355,-5.327098846435548
1970-01-01 00:02:07.800,127825.0,-4.996100425720215,-15.61019515991211,-9.53011989593506
1970-01-01 00:02:07.900,127937.33333333333,-0.23084098100662231,-18.1899471282959,2.4001871198415756
1970-01-01 00:02:08.000,128044.0,-5.989694118499756,-16.757017135620117,-5.792770862579346
1970-01-01 00:02:08.100,128141.5,-0.3716998174786568,-9.29429054260254,-1.215057373046875
1970-01-01 00:02:08.200,128272.66666666667,-3.3313321272532144,-8.633491516113281,-0.009576797485351562
1970-01-01 00:02:08.300,128356.0,-2.158971309661865,-8.571242332458496,0.3435679376125335
1970-01-01 00:02:08.400,128463.0,2.081159859895706,-12.935872077941895,0.8690952062606812
1970-01-01 00:02:08.500,128554.0,-4.680065631866455,-12.258312225341797,0.365115761756897
1970-01-01 00:02:08.600,128637.0,-1.1150994300842283,-12.191274642944336,0.5303156971931458
1970-01-01 00:02:08.700,128743.0,-2.182913362979889,-12.477382183074951,0.8355763852596283
1970-01-01 00:02:08.800,128857.5,-0.9439140036702156,-9.66419506072998,-0.3543418422341346
1970-01-01 00:02:08.900,128984.0,-2.702455282211304,-5.51624059677124,-1.1863269805908203
1970-01-01 00:02:09.000,129034.0,-1.4622586965560913,-2.027888774871826,-2.2469582557678223
1970-01-01 00:02:09.100,129141.5,-2.548029124736786,-4.331110835075378,-7.375338435173035
1970-01-01 00:02:09.200,129280.0,-18.949508666992188,-29.55402565002441,-10.650606155395508
1970-01-01 00:02:09.300,129380.0,-7.447762966156006,-20.29804229736328,-3.3937809467315674
1970-01-01 00:02:09.400,129430.0,-3.205237627029419,-5.681440830230713,-1.4640543460845947
1970-01-01 00:02:09.500,129511.0,-1.3521254062652588,-8.480262756347656,-1.8160020112991333
1970-01-01 00:02:09.600,129614.0,-0.801459014415741,-10.80503273010254,-1.222239971160889
1970-01-01 00:02:09.700,129735.0,-2.564788579940796,-8.752004146575928,-1.4341267943382263
1970-01-01 00:02:09.800,129810.0,-1.1079168319702148,-8.990227699279785,-0.5207388401031494
1970-01-01 00:02:09.900,129934.0,-0.6506242901086806,-13.115437030792236,0.4357447065412998
1970-01-01 00:02:10.000,130024.0,-5.441421985626221,-16.850391387939453,-2.6372132301330566
1970-01-01 00:02:10.100,130141.0,-2.7718870043754578,-12.115857601165771,0.1999158263206482
1970-01-01 00:02:10.200,130248.0,-2.0835540294647217,-12.816161632537842,-0.6751648634672165
1970-01-01 00:02:10.300,130356.0,-2.18770170211792,-5.497087001800537,-1.2629413604736328
1970-01-01 00:02:10.400,130455.5,-0.7104793563485146,-1.8602947294712067,-1.9967642426490788
1970-01-01 00:02:10.500,130554.0,0.8481459617614746,-2.7509377002716064,-9.587580680847168
1970-01-01 00:02:10.600,130654.5,-3.697245955467224,-9.788694024085999,-7.688978672027588
1970-01-01 00:02:10.700,130769.0,-5.0248308181762695,-9.469067573547363,-3.17590856552124
1970-01-01 00:02:10.800,130836.0,-0.2938882708549499,-11.094730377197266,-2.7234044075012207
1970-01-01 00:02:10.900,130933.5,-1.7351977229118347,-7.770381689071655,-0.8834604173898697
1970-01-01 00:02:11.000,131031.0,-0.4231751561164856,-10.369287490844728,-0.3148375153541565
1970-01-01 00:02:11.100,131133.0,-0.6733692288398743,-9.261969089508057,-0.8678981363773346
1970-01-01 00:02:11.200,131264.5,-2.8018144965171814,-11.136629104614258,0.5327098667621613
1970-01-01 00:02:11.300,131378.0,0.9463081955909728,-16.52717399597168,1.4640543460845947
1970-01-01 00:02:11.400,131430.0,-2.008136749267578,-12.646173477172852,1.744175910949707
1970-01-01 00:02:11.500,131513.0,-1.5173252820968628,-13.448230743408203,2.646790027618408
1970-01-01 00:02:11.600,131612.0,-2.7718870639801025,-7.247248649597168,-1.765723705291748
1970-01-01 00:02:11.700,131711.0,0.2328361123800277,-6.081272125244141,-1.2701239585876465
1970-01-01 00:02:11.800,131848.33333333334,-6.079077682302644,-5.421270847320557,-10.649010181427002
1970-01-01 00:02:11.900,131958.0,-3.123834609985352,-4.1156325340271,-2.0027496814727783
1970-01-01 00:02:12.000,132024.0,-5.688024520874023,-13.326127052307127,-1.823184609413147
1970-01-01 00:02:12.100,132124.5,-0.6506243348121643,-8.552088499069214,-1.399410903453827
1970-01-01 00:02:12.200,132256.5,-1.548449993133545,-8.303091526031494,-1.025915414094925
1970-01-01 00:02:12.300,132372.0,-2.2619221210479736,-9.150638580322266,0.0538695380091667
1970-01-01 00:02:12.400,132470.0,-0.49140989780426025,-12.73954725265503,-0.5841852053999901
1970-01-01 00:02:12.500,132554.0,-4.115034103393555,-14.52562141418457,1.5526398420333862
1970-01-01 00:02:12.600,132662.5,-2.5396494269371033,-11.935095310211182,0.6200982183218002
1970-01-01 00:02:12.700,132777.0,-2.3983914852142334,-8.542511701583862,-0.788889467716217
1970-01-01 00:02:12.800,132819.0,-0.5859808921813965,-6.811503887176514,-0.8439561128616333
1970-01-01 00:02:12.900,132955.66666666666,-0.3784833749135336,-3.744531512260437,-1.5490485429763796
1970-01-01 00:02:13.000,133082.0,0.7116764783859253,-2.073378562927246,-7.887697696685791
1970-01-01 00:02:13.100,133181.5,-5.697601318359375,-7.710526704788208,-4.935647010803223
1970-01-01 00:02:13.200,133264.5,-1.0516530871391296,-8.911218643188477,-2.050633668899536
1970-01-01 00:02:13.300,133362.0,-0.6673837304115295,-8.380903244018555,-0.729034423828125
1970-01-01 00:02:13.400,133479.0,-1.0696096420288086,-10.48660373687744,-1.047463297843933
1970-01-01 00:02:13.500,133528.0,-2.6378116607666016,-7.888894557952881,-0.8870517015457153
1970-01-01 00:02:13.600,133610.0,-1.591545581817627,-10.271124839782717,-0.4584896266460418
1970-01-01 00:02:13.700,133710.0,-2.295440912246704,-14.96615505218506,-1.5765818357467651
1970-01-01 00:02:13.800,133810.0,-3.667318344116211,-10.87446403503418,-0.9564836025238036
1970-01-01 00:02:13.900,133908.5,-1.3688848316669464,-12.284648895263672,2.503137826919556
1970-01-01 00:02:14.000,134034.5,-1.177348643541336,-4.516661524772644,-1.207874774932861
1970-01-01 00:02:14.100,134161.33333333334,-0.08559270948171614,-2.2649147510528564,-5.183446764945984
1970-01-01 00:02:14.200,134256.0,-0.7487865686416626,-4.14915132522583,-8.44554615020752
1970-01-01 00:02:14.300,134370.5,-4.046799421310425,-18.915390968322754,1.367089033126831
1970-01-01 00:02:14.400,134455.0,-1.6585832834243774,-9.636661529541016,-1.964442491531372
1970-01-01 00:02:14.500,134556.0,-0.6075286865234375,-8.097189903259277,-2.299630641937256
1970-01-01 00:02:14.600,134654.0,-1.790264368057251,-8.772355079650879,-2.208651065826416
1970-01-01 00:02:14.700,134752.5,-2.7934348583221436,-9.010578155517578,-0.3890577554702759
1970-01-01 00:02:14.800,134848.0,-2.168548107147217,-9.536105155944824,-0.6308721303939819
1970-01-01 00:02:14.900,134950.5,-1.9925743341445925,-13.754688739776611,0.8535329103469846
1970-01-01 00:02:15.000,135083.5,2.4510639905929565,-7.642292022705078,-5.194220542907715
1970-01-01 00:02:15.100,135182.0,-2.4175450801849365,-13.833697319030762,3.0418331623077397
1970-01-01 00:02:15.200,135247.5,-2.3564929962158203,-9.239224433898926,-1.7393875122070312
1970-01-01 00:02:15.300,135336.66666666666,-2.478597402572632,-5.084087371826172,-0.28491000086069107
1970-01-01 00:02:15.400,135462.0,-2.652176856994629,-4.1180267333984375,-0.3244143426418304
1970-01-01 00:02:15.500,135514.0,-2.1781249046325684,-10.702081680297852,-2.316390037536621
1970-01-01 00:02:15.600,135613.0,-5.575497150421143,-16.960525512695312,3.5924997329711914
1970-01-01 00:02:15.700,135711.0,3.242347717285156,-13.110648155212402,3.159149169921875
1970-01-01 00:02:15.800,135833.5,-2.261922061443329,-8.948328971862793,-0.06464345008134846
1970-01-01 00:02:15.900,135958.0,-1.969829499721527,-8.893262386322021,-0.24660278856754306
1970-01-01 00:02:16.000,136056.0,-0.9762357473373412,-8.647856712341309,0.0754173547029495
1970-01-01 00:02:16.100,136157.0,-0.09038111567497255,-8.356961250305176,-0.24301148205995562
1970-01-01 00:02:16.200,136256.0,-7.653664112091064,-21.906946182250977,-2.031480073928833
1970-01-01 00:02:16.300,136353.0,-3.442263603210449,-13.570335388183594,-2.3475148677825928
1970-01-01 00:02:16.400,136455.0,-3.71280837059021,-5.449203014373779,1.7729063034057615
1970-01-01 00:02:16.500,136553.0,-0.788290903903544,-3.833116888999939,-0.08499415218830109
1970-01-01 00:02:16.600,136650.0,-3.200449228286743,-11.283872604370115,-6.992266178131104
1970-01-01 00:02:16.700,136751.0,-5.037998914718628,-13.10226845741272,-6.186617136001587
1970-01-01 00:02:16.800,136837.66666666666,1.4969745799899101,-11.464634895324707,3.620033025741577
1970-01-01 00:02:16.900,136949.0,-2.9849710278213024,-11.807005882263184,-0.11252748966217041
1970-01-01 00:02:17.000,137048.0,-1.7280150651931765,-7.577648162841797,-1.1767501831054688
1970-01-01 00:02:17.100,137136.33333333334,-0.8134300708770752,-7.772775888442993,-1.6843208869298298
1970-01-01 00:02:17.200,137247.0,0.943913996219635,-6.71334171295166,-1.7920600175857544
1970-01-01 00:02:17.300,137346.66666666666,-0.010175347328186035,-9.83298635482788,-0.8655039370059967
1970-01-01 00:02:17.400,137462.5,-11.237784385681152,-13.421895027160645,0.9780313968658447
1970-01-01 00:02:17.500,137574.0,-2.234388768672943,-11.975796699523926,0.17717093229293823
1970-01-01 00:02:17.600,137694.0,-2.338536500930786,-3.110068082809448,1.483207941055298
1970-01-01 00:02:17.700,137790.0,0.3932476341724396,,
1970-01-01 00:02:17.800,137826.0,-2.034472942352295,-13.374011039733888,-12.113463401794434
1970-01-01 00:02:17.900,137946.66666666666,-1.688510775566101,-17.75659680366516,-3.91092848777771
1970-01-01 00:02:18.000,138056.0,2.744353771209717,-7.750030994415283,5.313930511474609
1970-01-01 00:02:18.100,138157.0,-3.6673184037208557,-10.097545862197876,-0.7613561153411865
1970-01-01 00:02:18.200,138256.0,0.0101753575727343,-6.677428722381592,0.910993754863739
1970-01-01 00:02:18.300,138337.5,0.013766646385193093,-8.803479671478271,-1.2677297592163086
1970-01-01 00:02:18.400,138435.0,-0.5931634902954102,-8.815450668334961,-1.2030863761901855
1970-01-01 00:02:18.500,138536.0,-1.5245078802108765,-11.853693008422852,-0.1687912195920944
1970-01-01 00:02:18.600,138661.0,-3.346495270729065,-11.091139316558838,0.21787236630916595
1970-01-01 00:02:18.700,138751.0,-2.783858060836792,-2.985569477081299,1.6292542219161987
1970-01-01 00:02:18.800,138849.0,-1.5053542852401731,-2.756923198699951,1.209071859717369
1970-01-01 00:02:18.900,138965.5,0.2136825025081634,-10.541669845581055,-8.802282333374023
1970-01-01 00:02:19.000,139062.0,-11.328763961791992,-21.543025970458984,-13.729549407958984
1970-01-01 00:02:19.100,139163.0,1.5520412921905518,-16.012420654296875,0.2693476974964142
1970-01-01 00:02:19.200,139245.5,-4.177283525466919,-7.283161401748657,-0.11611877381801605
1970-01-01 00:02:19.300,139360.0,-1.8668787479400637,-6.897695064544678,-2.2469582557678223
1970-01-01 00:02:19.400,139445.0,-0.3705027252435684,-6.227318525314331,-0.6129156351089478
1970-01-01 00:02:19.500,139559.0,-0.0496796853840351,-9.421183586120604,0.4058171808719635
1970-01-01 00:02:19.600,139612.0,-2.2667105197906494,-13.81454372406006,-1.459265947341919
1970-01-01 00:02:19.700,139711.0,-3.490147590637207,-28.821399688720703,-3.666719913482666
1970-01-01 00:02:19.800,139825.5,-2.0464439541101456,-10.046070337295532,-1.3371616601943972
1970-01-01 00:02:19.900,139939.0,-2.654571056365967,-4.481945514678955,0.6212953329086304
1970-01-01 00:02:20.000,140007.0,-0.0377086773514747,-1.4939818382263184,-2.225410461425781
1970-01-01 00:02:20.100,140123.0,-5.394735097885132,-5.94599974155426,-5.339069843292236
1970-01-01 00:02:20.200,140220.0,-8.017582893371582,-7.07726001739502,-4.741716384887695
1970-01-01 00:02:20.300,140329.5,-7.909843921661377,-20.75653123855591,-9.08838939666748
1970-01-01 00:02:20.400,140460.5,-2.783858060836792,-13.921086311340332,-2.55461323261261
1970-01-01 00:02:20.500,140552.0,-2.9059622287750244,-7.41484260559082,-2.589329242706299
1970-01-01 00:02:20.600,140658.0,-2.3133973479270935,-6.655880689620972,-1.6819267272949219
1970-01-01 00:02:20.700,140750.5,-1.5496470928192139,-6.976703643798828,-0.5614402890205383
1970-01-01 00:02:20.800,140855.0,0.37648820877075195,-8.603563785552979,0.48602295760065317
1970-01-01 00:02:20.900,140981.0,-1.0313023328781128,-11.8441162109375,0.7338228225708008
1970-01-01 00:02:21.000,141045.5,-2.5600001215934753,-17.132906913757324,1.6819267570972443
1970-01-01 00:02:21.100,141165.0,-5.4653639793396,-16.563087463378906,0.1687912195920944
1970-01-01 00:02:21.200,141245.5,0.11911153822438789,-9.254786491394043,2.0290859639644623
1970-01-01 00:02:21.300,141362.0,-3.490147590637207,-3.0837318897247314,1.7274165153503418
1970-01-01 00:02:21.400,141443.5,-2.4295161962509155,-2.1332337260246277,-0.26695349812507635
1970-01-01 00:02:21.500,141560.0,-6.765415668487549,-11.14500904083252,-12.187684059143066
1970-01-01 00:02:21.600,141607.0,-0.3728969097137451,-19.42894744873047,12.00333023071289
1970-01-01 00:02:21.700,141724.5,3.330932855606079,-7.468712091445923,2.9927520751953125
1970-01-01 00:02:21.800,141814.5,-1.6346412599086761,-7.498639822006226,-1.6448165178298952
1970-01-01 00:02:21.900,141921.0,-0.6961141228675842,-9.15542697906494,-2.548627614974976
1970-01-01 00:02:22.000,142006.0,-1.5101426839828491,-10.036493301391602,-0.0131681095808744
1970-01-01 00:02:22.100,142121.5,-1.852513611316681,-9.084798336029053,0.7984662652015686
1970-01-01 00:02:22.200,142247.0,-1.0995371341705322,-12.50012731552124,0.3926491141319275
1970-01-01 00:02:22.300,142353.0,-3.4302923679351807,-10.721235275268556,1.5478514432907104
1970-01-01 00:02:22.400,142460.5,-1.1534066796302795,-13.62300729751587,1.4724340438842773
1970-01-01 00:02:22.500,142551.0,-2.034472942352295,-10.80503273010254,0.8822633028030396
1970-01-01 00:02:22.600,142634.0,-0.7080851793289185,-11.010933876037598,0.2980781197547912
1970-01-01 00:02:22.700,142731.0,-2.8173768520355225,-7.407660007476807,-0.5422866940498352
1970-01-01 00:02:22.800,142860.66666666666,-0.2735375165939331,-4.151545763015747,-5.239710569381714
1970-01-01 00:02:22.900,142946.0,-0.8469488620758057,-5.48272180557251,-8.361749649047852
1970-01-01 00:02:23.000,143056.0,-7.2490442991256705,-18.383877277374268,-14.183250427246092
1970-01-01 00:02:23.100,143179.0,-1.3138182163238523,-13.58470058441162,-1.6101006269454956
1970-01-01 00:02:23.200,143253.5,-0.2064998745918274,-8.741230249404907,-3.037044882774353
1970-01-01 00:02:23.300,143379.0,-0.0161608606576919,-9.119514465332031,-2.251746654510498
1970-01-01 00:02:23.400,143427.0,-3.311779499053955,-8.998607158660889,-2.0147207379341125
1970-01-01 00:02:23.500,143551.0,-1.8225859999656677,-9.151835918426514,-0.40581718832254415
1970-01-01 00:02:23.600,143645.0,-0.0041898530907928,-15.210363388061523,-1.4209587574005127
1970-01-01 00:02:23.700,143754.66666666666,0.5728126764297485,-12.522871971130371,0.013168076674143622
1970-01-01 00:02:23.800,143842.0,-3.889979124069214,-13.532028198242188,1.928529500961304
1970-01-01 00:02:23.900,143961.0,0.8864531517028809,-12.375628471374512,-1.3922282457351687
1970-01-01 00:02:24.000,144038.0,-2.8221652507781982,-4.812345504760742,-0.4225766062736511
1970-01-01 00:02:24.100,144104.0,-1.127070426940918,-4.5825018882751465,-1.3658920526504517
1970-01-01 00:02:24.200,144220.5,-1.2072761952877045,-2.3163901567459106,-6.635530233383179
1970-01-01 00:02:24.300,144319.0,-0.8349778652191162,-3.263296842575073,-11.016919136047363
1970-01-01 00:02:24.400,144416.0,-4.1844658851623535,-17.171215057373047,-3.5494039058685303
1970-01-01 00:02:24.500,144520.0,-2.020107746124268,-12.114660263061523,-3.597288131713867
1970-01-01 00:02:24.600,144618.0,-1.8501193523406985,-7.647080421447754,-1.7561469078063965
1970-01-01 00:02:24.700,144740.5,0.30585926398634905,-9.720458984375,-0.5853822976350784
1970-01-01 00:02:24.800,144832.0,-1.0384849309921265,-9.423578262329102,-1.0043675899505615
1970-01-01 00:02:24.900,144958.0,-3.3740286827087402,-14.087482452392578,-0.6272808536887169
1970-01-01 00:02:25.000,145062.0,-2.0919337272644043,-16.445772171020508,-0.0754173547029495
1970-01-01 00:02:25.100,145148.0,0.74040687084198,-15.952566146850586,4.183867454528809
1970-01-01 00:02:25.200,145253.0,-1.1988965421915054,-8.620323419570923,-1.3120225071907043
1970-01-01 00:02:25.300,145378.0,-0.8062474131584167,-2.5450363159179688,0.1113303825259208
1970-01-01 00:02:25.400,145443.0,-0.0855927094817161,-1.5849615335464478,-2.3977930545806885
1970-01-01 00:02:25.500,145544.0,-4.372410863637924,-12.200852096080778,-4.942829370498657
1970-01-01 00:02:25.600,145675.0,-5.31692361831665,-12.653355598449709,-0.7170634269714355
1970-01-01 00:02:25.700,145743.0,0.0173579603433609,-9.334992408752441,-1.561019480228424
1970-01-01 00:02:25.800,145824.0,-1.366490602493286,-7.797914981842041,-1.5454572439193726
1970-01-01 00:02:25.900,145947.0,-0.9056068062782286,-9.356540203094482,-1.1707646250724792
1970-01-01 00:02:26.000,146040.0,-2.09672212600708,-10.685321807861328,-1.657984733581543
1970-01-01 00:02:26.100,146146.0,-2.9143420457839966,-13.322535514831543,-2.450465440750122
1970-01-01 00:02:26.200,146234.0,-4.220378875732422,-12.67250919342041,-0.4082113802433014
1970-01-01 00:02:26.300,146303.0,1.8297686576843264,-14.125789642333984,1.7753005027770996
1970-01-01 00:02:26.400,146403.5,-2.893991231918335,-9.360131740570068,-0.5805938839912415
1970-01-01 00:02:26.500,146547.0,-0.20949264988303185,-3.2902316749095917,-3.359065055847168
1970-01-01 00:02:26.600,146658.85714285713,-4.934250220656395,-7.639498432477315,-8.976261069377264
1970-01-01 00:02:26.700,146754.0,-2.0733787417411804,-9.522338509559631,-0.22146371006965637
1970-01-01 00:02:26.800,146848.0,-1.5468537795046966,-10.690908749898275,-1.7928580443064372
1970-01-01 00:02:26.900,146960.4,-1.404797863960266,-7.998549175262451,-1.7154455184936523
1970-01-01 00:02:27.000,147056.0,-0.20673931166529655,-9.802819633483887,-0.6672640115022659
1970-01-01 00:02:27.100,147156.2,-2.337578845024109,-8.780974006652832,-0.34117373935878276
1970-01-01 00:02:27.200,147254.4,-2.072780156135559,-12.696451568603516,-0.44699745774269106
1970-01-01 00:02:27.300,147353.2,-3.279936599731445,-13.850935554504394,-0.7362170252017677
1970-01-01 00:02:27.400,147455.6,0.028371289372444153,-13.894510269165039,2.1899763345718384
1970-01-01 00:02:27.500,147541.85714285713,-0.4131194978952408,-10.395623683929443,-1.1245565295219422
1970-01-01 00:02:27.600,147654.83333333334,-0.03627215623855591,-6.816771125793457,-0.6825869083404541
1970-01-01 00:02:27.700,147753.2,-0.4878185983747244,-3.354755401611328,-1.9941306114196777
1970-01-01 00:02:27.800,147845.16666666666,-0.31974565982818604,-2.1049821376800537,-6.137057209014893
1970-01-01 00:02:27.900,147948.8,-3.7453694462776186,-14.073117733001709,-4.316506028175356
1970-01-01 00:02:28.000,148048.83333333334,-2.149394619464874,-10.514376449584962,-2.033874344825745
1970-01-01 00:02:28.100,148147.2,-0.6602011144161224,-7.924328899383545,-2.304897975921631
1970-01-01 00:02:28.200,148248.8,-1.8994399666786195,-8.961017990112305,-1.9534291744232177
1970-01-01 00:02:28.300,148344.8,-1.619797158241272,-9.406339645385742,-1.3788207650184632
1970-01-01 00:02:28.400,148444.2,-2.5559300661087034,-9.093656921386719,-0.9928754210472107
1970-01-01 00:02:28.500,148546.8,-1.8659210681915284,-9.420705032348632,0.11803414821624755
1970-01-01 00:02:28.600,148652.16666666666,-1.8273744235436122,-12.79900328318278,0.0051874518394470215
1970-01-01 00:02:28.700,148761.2,-0.9326612472534179,-11.750263023376466,-3.085886573791504
1970-01-01 00:02:28.800,148861.7142857143,1.5218743801116943,-12.31290054321289,2.5505431056022645
1970-01-01 00:02:28.900,148957.6,-1.7198747873306275,-10.459309577941895,-0.5015852749347687
1970-01-01 00:02:29.000,149053.33333333334,-2.5995044708251953,-7.931990242004394,-1.1475408673286438
1970-01-01 00:02:29.100,149156.33333333334,-2.550183963775635,-3.640623092651367,0.3943250149488449
1970-01-01 00:02:29.200,149257.83333333334,-0.9896432876586914,-4.116590356826782,-0.19225441217422484
1970-01-01 00:02:29.300,149357.2,-5.187636494636536,-13.70105857849121,-9.221267747879029
1970-01-01 00:02:29.400,149455.8,-2.7886464595794678,-14.634797191619873,1.2887988805770874
1970-01-01 00:02:29.500,149554.8,0.3803188920021057,-10.451648139953614,2.737290757894516
1970-01-01 00:02:29.600,149654.8,-4.202183127403259,-7.581957912445068,-0.7405265778303146
1970-01-01 00:02:29.700,149744.57142857142,0.3410540372133255,-7.593928813934326,0.48626238107681274
1970-01-01 00:02:29.800,149846.5,-2.339973032474518,-8.033504581451416,0.8410830616950988
1970-01-01 00:02:29.900,149942.25,0.038905806839466095,-8.158841013908386,-0.7386111970990896
1970-01-01 00:02:30.000,150053.5,-0.8553285822272301,-7.388506650924683,-0.23582886531949038
1970-01-01 00:02:30.100,150171.0,0.8912416100502014,-23.38895606994629,0.0442927330732345
1970-01-01 00:02:30.200,150219.0,-1.325789213180542,-14.528016090393066,-1.4760253429412842
1970-01-01 00:02:30.300,150311.5,-2.8125884532928467,-11.465831756591797,0.547075092792511
1970-01-01 00:02:30.400,150402.0,-1.8142063617706297,-2.537853717803955,2.144007682800293
1970-01-01 00:02:30.500,150533.0,-1.1162965297698975,-6.254851818084717,-1.4401123523712158
1970-01-01 00:02:30.600,150633.0,-0.9475052952766418,-12.78264331817627,2.2685060501098637
1970-01-01 00:02:30.700,150734.0,-4.559158444404602,-19.026721000671387,-3.8271315693855286
1970-01-01 00:02:30.800,150864.5,-2.7144261598587036,-7.837419271469116,-0.29807811975479126
1970-01-01 00:02:30.900,150962.0,0.862511157989502,-6.196194171905518,-1.9045875072479248
1970-01-01 00:02:31.000,151072.0,0.2017114758491515,-8.60116958618164,0.041898488998413086
1970-01-01 00:02:31.100,151161.0,-1.12467622756958,-6.435614109039307,-2.167949676513672
1970-01-01 00:02:31.200,151267.5,-4.492120862007141,-14.156914710998535,-1.86508309841156
1970-01-01 00:02:31.300,151358.0,-0.902015507221222,-17.81525421142578,-2.036268472671509
1970-01-01 00:02:31.400,151466.5,-3.18728107213974,-4.723760187625885,1.7070658206939697
1970-01-01 00:02:31.500,151559.5,-1.3784616589546204,-0.6153098344802856,1.7298107147216797
1970-01-01 00:02:31.600,151657.33333333334,-0.7304310003916422,-7.043741464614868,-0.6476315557956697
1970-01-01 00:02:31.700,151773.0,-12.580931663513184,-32.8699951171875,-5.996278285980225
1970-01-01 00:02:31.800,151854.5,-2.5372552275657654,-14.001291751861572,-2.69587105512619
1970-01-01 00:02:31.900,151971.0,-3.5069069862365723,-8.607154846191406,-1.3658920526504517
1970-01-01 00:02:32.000,152053.5,0.019752144813537598,-6.005855083465576,-1.5239093899726868
1970-01-01 00:02:32.100,152171.0,-0.9546879529953004,-5.784391403198242,-0.6931213736534119
1970-01-01 00:02:32.200,152251.0,-4.453813552856445,-16.78455114364624,-0.4082113802433014
1970-01-01 00:02:32.300,152350.0,-6.080673694610596,-18.011579513549805,-2.6850972175598145
1970-01-01 00:02:32.400,152418.0,-4.138976097106934,-10.819397926330566,-0.424970805644989
1970-01-01 00:02:32.500,152541.5,-2.6533740758895874,-1.8339584469795225,0.6117185205221176
1970-01-01 00:02:32.600,152634.0,0.778714120388031,-1.0845733880996704,-0.0562637411057949
1970-01-01 00:02:32.700,152739.0,-4.177283406257629,-20.1531925201416,0.5135560035705566
1970-01-01 00:02:32.800,152868.5,-0.6398504376411438,-12.846488157908121,0.7314286629358927
1970-01-01 00:02:32.900,152962.0,-3.5021185874938965,-7.797914981842041,0.4393360018730163
1970-01-01 00:02:33.000,153062.5,-1.499368816614151,-6.344634532928467,-0.08858546614646912
1970-01-01 00:02:33.100,153160.0,-0.6937199234962463,-8.544905662536621,-1.9476830959320068
1970-01-01 00:02:33.200,153276.0,-3.3193612098693848,-7.705738067626953,-0.8056488931179047
1970-01-01 00:02:33.300,153359.0,-3.911526918411255,-8.987833023071289,0.0969651713967323
1970-01-01 00:02:33.400,153458.66666666666,0.9471063415209452,-17.01638921101888,0.763351329912742
1970-01-01 00:02:33.500,153540.8,1.2676100790500642,-14.276624870300292,0.5853823065757752
1970-01-01 00:02:33.600,153645.5,-0.6233304083347321,-5.068046236038208,1.9151219129562378
1970-01-01 00:02:33.700,153739.6,-1.5431826949119567,-0.8619126200675964,1.2677297830581664
1970-01-01 00:02:33.800,153838.6,-2.0823569267988207,-5.78917965888977,-0.6581660628318786
1970-01-01 00:02:33.900,153938.4,-6.720404529571534,-11.621933937072754,-8.068699073791503
1970-01-01 00:02:34.000,154045.0,-0.10394803682963172,-15.526398385564486,2.3399329582850137
1970-01-01 00:02:34.100,154146.0,-5.681440591812134,-14.59684944152832,-1.3748702891170979
1970-01-01 00:02:34.200,154232.5,-1.010233399271965,-8.020096778869629,-0.7659051179885864
1970-01-01 00:02:34.300,154333.8,-1.5537171959877014,-8.221688556671143,-1.345301902294159
1970-01-01 00:02:34.400,154441.83333333334,-2.4470736583073935,-8.146670500437418,-0.2238578599256774
1970-01-01 00:02:34.500,154546.66666666666,-1.168250697851181,-9.468110275268554,0.9895235598087311
1970-01-01 00:02:34.600,154651.2,-1.296579945087433,-10.916601943969727,-0.2444479949772358
1970-01-01 00:02:34.700,154747.4,-3.716160202026367,-13.648386192321777,2.302024906873703
1970-01-01 00:02:34.800,154846.4,-2.2432473961263897,-14.878526878356933,1.9687520682811737
1970-01-01 00:02:34.900,154949.4,1.6741455141454935,-13.38262996673584,1.8997990012168884
1970-01-01 00:02:35.000,155042.16666666666,-0.4849455453455448,-10.875900650024414,2.2038626670837402
1970-01-01 00:02:35.100,155144.0,-2.6205734968185426,-4.759672927856445,0.5111620604991913
1970-01-01 00:02:35.200,155243.83333333334,-3.0668527126312255,-3.183809423446655,-1.351048046350479
1970-01-01 00:02:35.300,155339.83333333334,-2.4750060081481933,-7.373662376403809,-9.248561668395997
1970-01-01 00:02:35.400,155442.4,-8.178473329544067,-15.109807014465332,-2.6755204677581785
1970-01-01 00:02:35.500,155544.2,1.1727997004985808,-8.390719318389893,0.606930136680603
1970-01-01 00:02:35.600,155643.8,-2.0699070930480956,-10.361626052856446,-0.29855693578720094
1970-01-01 00:02:35.700,155744.83333333334,-3.1429882526397703,-8.640673828125,-0.6596025682985782
1970-01-01 00:02:35.800,155835.66666666666,-1.194586944580078,-8.6770658493042,1.5770606890320777
1970-01-01 00:02:35.900,155940.0,-2.5755624294281008,-8.986875534057617,1.5502456277608871
1970-01-01 00:02:36.000,156036.0,-2.7268760442733764,-11.156022453308106,0.7232883451040835
1970-01-01 00:02:36.100,156139.6,-2.707722432166338,-13.690524291992187,0.007422006130218506
1970-01-01 00:02:36.200,156238.2,0.7159860134124756,-15.409082221984864,1.3577518224716187
1970-01-01 00:02:36.300,156335.2,0.011611843109130859,-13.00386734008789,-0.6054935997352004
1970-01-01 00:02:36.400,156449.2857142857,-2.6406049927075705,-7.102798382441203,-1.2194467410445213
1970-01-01 00:02:36.500,156556.33333333334,-2.076131987571716,-2.52492516040802,-0.9157821640372277
1970-01-01 00:02:36.600,156655.83333333334,0.058538229763507844,-1.6917429208755492,-7.384436416625976
1970-01-01 00:02:36.700,156752.83333333334,-4.550299906730652,-6.6448675155639645,-12.349053001403808
1970-01-01 00:02:36.800,156849.0,-6.304292154312134,-8.389761638641357,-4.973475170135498
1970-01-01 00:02:36.900,156961.0,-4.9374425411224365,-9.275136947631836,-4.155137062072754
1970-01-01 00:02:37.000,157076.0,-3.277063608169556,-6.983886241912842,-4.174290657043457
1970-01-01 00:02:37.100,157143.0,0.6901286244392395,-8.683769226074219,-2.9293057918548584
1970-01-01 00:02:37.200,157227.0,0.4578910768032074,-11.319786071777344,-3.556586742401123
1970-01-01 00:02:37.300,157325.5,-3.420715570449829,-4.1874589920043945,-4.459200859069824
1970-01-01 00:02:37.400,157448.5,-1.1809399724006653,-12.143390893936157,0.7134720683097839
1970-01-01 00:02:37.500,157521.0,-3.961805284023285,-12.986149787902832,0.4668692946434021
1970-01-01 00:02:37.600,157648.0,-6.006453514099121,-12.427103996276855,0.9876081347465515
1970-01-01 00:02:37.700,157771.0,-4.366425514221191,-11.36048698425293,1.3275848627090454
1970-01-01 00:02:37.800,157841.25,-2.5755624771118164,-6.544949372609456,-0.46168188750743866
1970-01-01 00:02:37.900,157970.0,-1.912368655204773,-4.845864295959473,-0.0945709645748138
1970-01-01 00:02:38.000,158045.66666666666,-0.4758475720882416,-1.7920600175857544,-7.010222434997559
1970-01-01 00:02:38.100,158168.0,-10.368688583374023,-9.27034854888916,-1.6962919235229492
1970-01-01 00:02:38.200,158234.0,-2.6988638639450073,-12.631808280944824,-1.3874399065971375
1970-01-01 00:02:38.300,158351.0,1.1713632345199585,-10.517727851867676,-1.2988544702529907
1970-01-01 00:02:38.400,158457.5,-1.388038456439972,-6.936002492904663,-2.270900249481201
1970-01-01 00:02:38.500,158598.0,-1.1558008193969729,-9.313444137573242,0.152031809091568
1970-01-01 00:02:38.600,158647.0,-2.3744494915008545,-13.939042091369627,-1.4113819599151611
1970-01-01 00:02:38.700,158731.0,-5.410297393798828,-14.226346969604492,-4.899733543395996
1970-01-01 00:02:38.800,158819.5,-2.1446061432361603,-14.1628999710083,3.375824451446533
1970-01-01 00:02:38.900,158928.0,-2.8365304470062256,-15.447389602661133,-1.1863269805908203
1970-01-01 00:02:39.000,159053.0,-0.8445546627044678,-4.734533905982971,-0.4213795065879822
1970-01-01 00:02:39.100,159144.0,0.3645172119140625,-2.054224967956543,-5.366602897644043
1970-01-01 00:02:39.200,159226.0,-0.6961141228675842,-3.0813376903533936,-8.074444770812988
1970-01-01 00:02:39.300,159326.0,-2.9682116508483887,-11.944672584533691,0.2956839203834533
1970-01-01 00:02:39.400,159447.5,-0.621893897652626,-9.90241813659668,-1.6735469698905945
1970-01-01 00:02:39.500,159538.0,-1.083974838256836,-8.389283180236816,-1.6867151260375977
1970-01-01 00:02:39.600,159646.5,-0.765545979142189,-8.066065788269043,-0.4967968538403511
1970-01-01 00:02:39.700,159772.0,-2.9682116508483887,-8.212111473083496,-0.4967968463897705
1970-01-01 00:02:39.800,159843.33333333334,-1.6406266689300537,-14.79377269744873,-1.6089035272598267
1970-01-01 00:02:39.900,159953.0,1.4203602075576782,-16.606182098388672,-1.169567584991455
1970-01-01 00:02:40.000,160025.0,-1.4431050618489583,-13.0328369140625,2.0422541052103043
1970-01-01 00:02:40.100,160142.0,-3.96180522441864,-9.181763410568237,-0.8655038774013519
1970-01-01 00:02:40.200,160285.0,0.465073674917221,-5.66228723526001,-1.521515130996704
1970-01-01 00:02:40.300,160366.0,0.4531026780605316,-1.3623007535934448,-2.917334794998169
