abs_time,relative_time,AccX,AccY,AccZ
1970-01-01 00:00:30.000,30057.833333333332,-0.8388085633516311,-10.499532318115234,-0.6902483358979226
1970-01-01 00:00:30.100,30144.25,0.05087678506970403,-8.361749410629272,-1.519120991230011
1970-01-01 00:00:30.200,30274.5,1.0133458375930786,-7.501033782958984,-2.220622062683105
1970-01-01 00:00:30.300,30362.0,1.8680758476257324,-8.47547435760498,-6.204573631286621
1970-01-01 00:00:30.400,30450.666666666668,1.2288240268826487,-11.225613911946615,0.5578489899635315
1970-01-01 00:00:30.500,30524.0,3.4314894676208496,-10.781089782714844,1.701080322265625
1970-01-01 00:00:30.600,30654.0,2.0620062351226807,-10.334571838378906,0.7457938045263289
1970-01-01 00:00:30.700,30791.0,0.9127894043922424,-8.832210540771484,0.7362170219421387
1970-01-01 00:00:30.800,30861.5,1.815403401851654,-9.375693798065186,-0.5135562568902969
1970-01-01 00:00:30.900,30962.0,2.054823637008667,-11.130643844604492,0.5351040959358215
1970-01-01 00:00:31.000,31062.0,1.2108675241470337,-10.381258487701416,0.29807808995246887
1970-01-01 00:00:31.100,31126.0,2.1338322162628174,-13.455413818359377,2.3235726356506348
1970-01-01 00:00:31.200,31218.0,1.8441338539123533,-11.569979667663574,0.4560954347252847
1970-01-01 00:00:31.300,31327.5,1.3126211166381836,-8.743624687194824,-0.3507505357265472
1970-01-01 00:00:31.400,31427.0,-1.0097545385360718,-5.22175407409668,-1.6915035247802734
1970-01-01 00:00:31.500,31539.5,2.354098856449127,-11.587936401367188,-1.6017210483551025
1970-01-01 00:00:31.600,31650.666666666668,-0.09995794296264648,-8.644664287567139,1.9177555218338966
1970-01-01 00:00:31.700,31762.0,0.1131260320544242,-9.107542991638184,-0.8391677141189575
1970-01-01 00:00:31.800,31850.666666666668,0.7846996188163757,-9.013371149698893,0.4405331015586853
1970-01-01 00:00:31.900,31962.0,1.492186188697815,-9.33499240875244,-0.3579331636428833
1970-01-01 00:00:32.000,32060.0,2.235585927963257,-11.941080570220945,-0.16759410500526428
1970-01-01 00:00:32.100,32150.333333333332,0.21128830313682556,-9.649829864501953,1.0199299827218058
1970-01-01 00:00:32.200,32278.0,0.10115504264831554,-12.146982192993164,0.8355763852596283
1970-01-01 00:00:32.300,32362.0,1.3317747116088867,-9.739612579345703,0.3124433159828186
1970-01-01 00:00:32.400,32451.333333333332,-0.43754035979509354,-4.748898983001709,-0.8882487714290619
1970-01-01 00:00:32.500,32552.0,1.856104850769043,-13.42668342590332,-8.99741005897522
1970-01-01 00:00:32.600,32649.333333333332,0.5895721813042959,-9.682151556015015,-0.11492180824279785
1970-01-01 00:00:32.700,32778.0,1.0133458375930786,-9.002198219299316,2.366668462753296
1970-01-01 00:00:32.800,32862.0,0.9163807183504105,-9.091980934143066,-0.6667851656675339
1970-01-01 00:00:32.900,32976.5,0.9103952050209044,-8.401253700256348,0.1783680319786071
1970-01-01 00:00:33.000,33063.0,2.5348610281944275,-9.248801231384277,-0.5147533603012561
1970-01-01 00:00:33.100,33126.0,3.4075474739074707,-11.702857971191406,0.0059855040162801
1970-01-01 00:00:33.200,33268.666666666664,1.2180500905960798,-13.235146999359133,1.0594342704862356
1970-01-01 00:00:33.300,33362.0,0.7667431235313416,-11.628637313842772,0.7122750282287598
1970-01-01 00:00:33.400,33450.666666666664,0.7092822417616844,-6.479507923126221,0.5614402890205383
1970-01-01 00:00:33.500,33544.0,0.8744821548461914,-7.261613845825195,-3.872621297836304
1970-01-01 00:00:33.600,33629.0,1.5065513849258425,-15.040374755859377,-6.901286602020264
1970-01-01 00:00:33.700,33736.0,0.9941922426223755,-8.467094421386719,-0.5386953949928283
1970-01-01 00:00:33.800,33862.0,2.2714988589286804,-9.813832759857178,1.9943699687719345
1970-01-01 00:00:33.900,33962.0,0.6613982319831848,-8.305485725402832,0.5398924946784973
1970-01-01 00:00:34.000,34050.666666666664,2.2463598251342773,-9.364521026611328,-0.2322375774383545
1970-01-01 00:00:34.100,34162.0,3.9151182174682617,-11.319786071777344,-0.568622887134552
1970-01-01 00:00:34.200,34262.0,1.1354501843452454,-11.548431873321533,1.0654197484254837
1970-01-01 00:00:34.300,34362.0,-0.9235633015632628,-14.190433502197266,0.970848798751831
1970-01-01 00:00:34.400,34450.666666666664,0.5991489589214325,-9.643046379089355,0.622492428869009
1970-01-01 00:00:34.500,34536.0,-0.921169102191925,-4.034229755401611,0.0802057534456253
1970-01-01 00:00:34.600,34659.5,-0.67815762758255,-7.445967197418213,-5.152322053909302
1970-01-01 00:00:34.700,34762.0,0.5225345492362976,-13.345280647277832,0.7745242714881897
1970-01-01 00:00:34.800,34873.333333333336,1.3397553861141205,-9.47265887260437,1.545457184314728
1970-01-01 00:00:34.900,34981.0,0.314238965511322,-9.263166427612305,-0.8559271097183228
1970-01-01 00:00:35.000,35051.666666666664,1.874061405658722,-7.931990305582683,0.6703764647245407
1970-01-01 00:00:35.100,35162.0,1.6023194789886477,-8.99740982055664,-2.100912094116211
1970-01-01 00:00:35.200,35249.833333333336,2.004146392146746,-11.526884237925211,-0.27333802978197735
1970-01-01 00:00:35.300,35362.5,-1.2582726720487698,-13.590446662902831,1.2169727087020874
1970-01-01 00:00:35.400,35448.5,0.40043023228645325,-9.950781154632569,0.8683769583702088
1970-01-01 00:00:35.500,35547.5,-0.2665943577885628,-4.888002204895019,-0.3450044602155686
1970-01-01 00:00:35.600,35653.2,0.882143622636795,-9.661082744598389,-5.223429918289185
1970-01-01 00:00:35.700,35752.4,-1.0322600588202477,-10.395144844055176,-2.732981252670288
1970-01-01 00:00:35.800,35855.0,1.5534777760505676,-9.843999576568603,2.117192578315735
1970-01-01 00:00:35.900,35950.8,2.750099754333496,-10.520601081848145,1.3041216731071472
1970-01-01 00:00:36.000,36050.0,0.95349081158638,-9.054870986938477,0.9435548789333552
1970-01-01 00:00:36.100,36149.0,1.982518696784973,-8.649771881103515,0.26599581241607667
1970-01-01 00:00:36.200,36248.2,3.479852485656738,-10.092517852783203,-0.2621650904417038
1970-01-01 00:00:36.300,36344.0,1.7215507641434669,-11.911153602600098,-0.37517140805721283
1970-01-01 00:00:36.400,36446.4,-1.211346334218979,-12.53987102508545,1.2571953177452087
1970-01-01 00:00:36.500,36549.0,0.5067327782511711,-11.215398406982422,0.6126762211322785
1970-01-01 00:00:36.600,36645.0,0.1274912465363741,-5.739859104156494,-0.11085154209285972
1970-01-01 00:00:36.700,36744.0,0.5076904701068997,-6.20194001197815,-3.4186806082725525
1970-01-01 00:00:36.800,36843.2,-0.9192537426948547,-10.834720134735107,-6.202179604768753
1970-01-01 00:00:36.900,36935.5,1.1388020515441895,-11.737813377380371,2.4815900802612303
1970-01-01 00:00:37.000,37041.6,2.816658592224121,-9.651984596252442,1.981201907992363
1970-01-01 00:00:37.100,37140.5,0.9692925572395324,-9.094614601135254,0.7070077449083328
1970-01-01 00:00:37.200,37249.5,2.5089238484700522,-9.513360341389975,-0.49200844019651413
1970-01-01 00:00:37.300,37362.0,2.619855260848999,-10.06713924407959,0.06296749114990234
1970-01-01 00:00:37.400,37457.8,2.266471064090729,-11.535263633728027,-0.537977111339569
1970-01-01 00:00:37.500,37557.0,-0.8881291329860688,-12.394782257080077,1.1571177005767823
1970-01-01 00:00:37.600,37649.5,0.8649053394794464,-10.569921875,0.44268789887428284
1970-01-01 00:00:37.700,37755.0,0.007781156897544872,-6.109045028686523,-0.3948038637638092
1970-01-01 00:00:37.800,37854.4,0.6523002535104752,-7.202237510681153,-4.422808742523193
1970-01-01 00:00:37.900,37953.6,-0.7669825196266175,-10.308953666687012,-5.082171869277954
1970-01-01 00:00:38.000,38053.0,1.5127763479948044,-11.02912940979004,1.7326837837696076
1970-01-01 00:00:38.100,38149.0,2.42448832988739,-9.705614852905274,1.4396335110068321
1970-01-01 00:00:38.200,38248.0,0.8328230679035187,-9.030928611755371,0.11707646250724793
1970-01-01 00:00:38.300,38347.71428571428,1.7651252269744873,-9.416395378112792,0.11468226611614227
1970-01-01 00:00:38.400,38449.8,2.6514586925506594,-10.082462120056153,-0.28610710650682447
1970-01-01 00:00:38.500,38548.8,2.9124266505241394,-11.857044410705566,-0.654335331916809
1970-01-01 00:00:38.600,38638.5,-0.47943888790905476,-10.14902114868164,0.9744400903582573
1970-01-01 00:00:38.700,38768.0,-0.5069721937179565,-13.979743957519531,0.8822633028030396
1970-01-01 00:00:38.800,38854.5,1.2659341096878052,-8.668207168579102,0.14484919607639316
1970-01-01 00:00:38.900,38986.5,-0.7080851793289185,-5.142745018005371,-1.2294225692749023
1970-01-01 00:00:39.000,39086.0,2.610278367996216,-11.367670059204102,-5.768828868865967
1970-01-01 00:00:39.100,39185.5,1.4036006927490234,-7.802703380584717,-2.0649988651275635
1970-01-01 00:00:39.200,39220.0,0.4339490532875061,-5.552153587341309,1.7609353065490725
1970-01-01 00:00:39.300,39304.0,0.5105634927749634,-7.285555839538574,1.4616601467132568
1970-01-01 00:00:39.400,39403.0,0.3166331648826599,-9.33499240875244,0.4345476031303406
1970-01-01 00:00:39.500,39523.0,1.549647033214569,-9.612719535827637,0.3387795314192772
1970-01-01 00:00:39.600,39621.0,1.856104850769043,-9.749189376831056,-0.7242460250854492
1970-01-01 00:00:39.700,39742.333333333336,2.3253684043884277,-10.303447246551514,-0.21547815203666687
1970-01-01 00:00:39.800,39839.0,-0.4590881764888763,-9.938331604003906,0.4034229815006256
1970-01-01 00:00:39.900,39938.5,0.6949170231819153,-14.362815856933594,-0.4297592043876648
1970-01-01 00:00:40.000,40037.5,-0.2148796021938324,-7.891288757324219,-0.1616086214780807
1970-01-01 00:00:40.100,40136.5,0.0532709881663322,-5.017049789428711,-1.6172832250595093
1970-01-01 00:00:40.200,40270.333333333336,1.4478935003280637,-11.988965034484863,-3.6810851693153386
1970-01-01 00:00:40.300,40355.0,1.3078327178955078,-11.942277908325195,4.083311080932617
1970-01-01 00:00:40.400,40470.5,1.4957775473594666,-8.973467826843262,1.2820950150489807
1970-01-01 00:00:40.500,40539.5,1.4993688464164734,-9.987412452697754,1.2413935661315918
1970-01-01 00:00:40.600,40643.666666666664,1.5017629861831665,-8.97346830368042,0.9014169275760651
1970-01-01 00:00:40.700,40771.5,2.057217836380005,-9.230844974517822,-0.4177882075309753
1970-01-01 00:00:40.800,40870.0,2.054823637008667,-10.153809547424316,0.6236895322799683
1970-01-01 00:00:40.900,40969.5,-0.6673837304115295,-10.193313598632812,-0.9756371974945068
1970-01-01 00:00:41.000,41054.5,0.6362591199576855,-14.057555198669434,0.2190694510936737
1970-01-01 00:00:41.100,41168.0,0.4291606545448303,-9.41639518737793,-0.0323217213153839
1970-01-01 00:00:41.200,41222.5,0.618302583694458,-4.548983097076416,-1.4389152526855469
1970-01-01 00:00:41.300,41306.5,0.8553285598754883,-4.541800498962402,-2.831143617630005
1970-01-01 00:00:41.400,41406.0,0.7044938206672668,-10.54406452178955,-5.905298709869385
1970-01-01 00:00:41.500,41530.0,-0.6326678097248077,-8.60116958618164,-0.8894459009170532
1970-01-01 00:00:41.600,41621.0,2.483385801315308,-8.767566680908203,2.036268472671509
1970-01-01 00:00:41.700,41745.4,1.6837223649024964,-9.751104545593261,0.7975085735321045
1970-01-01 00:00:41.800,41847.5,0.9828198179602623,-9.244012832641602,0.31124622747302055
1970-01-01 00:00:41.900,41951.0,2.0612081587314606,-9.592369079589844,0.8818642944097519
1970-01-01 00:00:42.000,42052.333333333336,4.0281246423721315,-12.211865043640136,0.08978256285190582
1970-01-01 00:00:42.100,42158.2,-0.5706579685211182,-9.294769763946533,0.941639530658722
1970-01-01 00:00:42.200,42257.0,2.6232070446014406,-11.626722145080567,0.8492233395576477
1970-01-01 00:00:42.300,42347.71428571428,1.7138893127441406,-9.982863616943359,0.046208091080188765
1970-01-01 00:00:42.400,42455.5,0.503380897641182,-6.866091632843018,-1.3223176002502441
1970-01-01 00:00:42.500,42554.5,2.141972577571869,-8.349060344696046,-4.130237340927124
1970-01-01 00:00:42.600,42662.28571428572,-0.3235763907432556,-9.898108863830567,-0.6155492305755615
1970-01-01 00:00:42.700,42753.0,1.147421157360077,-11.177570056915282,-0.18171992301940917
1970-01-01 00:00:42.800,42852.0,2.043810248374939,-9.824367332458497,-0.4565742552280426
1970-01-01 00:00:42.900,42944.5,1.439034914970398,-9.474813842773438,-0.31531636267900465
1970-01-01 00:00:43.000,43043.5,1.687553071975708,-9.497319221496582,0.6011840403079987
1970-01-01 00:00:43.100,43149.5,1.8704700946807862,-9.801861763000488,0.578678548336029
1970-01-01 00:00:43.200,43252.5,1.4093468189239502,-10.621636390686037,0.21428104639053344
1970-01-01 00:00:43.300,43354.333333333336,2.8219258069992064,-10.786357498168945,-1.190157663822174
1970-01-01 00:00:43.400,43447.0,4.576875638961792,-11.510363960266114,1.9764134764671326
1970-01-01 00:00:43.500,43539.666666666664,2.3957579135894775,-10.92857322692871,-0.2286462590098381
1970-01-01 00:00:43.600,43648.28571428572,0.9692925453186035,-7.603505611419678,-0.37900213040411473
1970-01-01 00:00:43.700,43745.0,0.4760870039463043,-6.302017784118652,-2.357091546058655
1970-01-01 00:00:43.800,43844.0,2.4125173807144167,-10.523952865600586,-3.363135075569153
1970-01-01 00:00:43.900,43949.5,1.2939463511109353,-9.838732433319091,-0.2789244920015335
1970-01-01 00:00:44.000,44042.2,1.4452598690986633,-10.133219337463379,0.7113173186779023
1970-01-01 00:00:44.100,44141.2,1.1943475246429442,-9.702741813659667,0.2679111588746309
1970-01-01 00:00:44.200,44237.166666666664,0.7174225568771362,-9.447519874572754,1.0977414727211
1970-01-01 00:00:44.300,44349.5,1.9131666521231334,-9.690531253814697,0.6604006389776865
1970-01-01 00:00:44.400,44458.4,2.50589120388031,-12.072522735595703,-0.0916979432106018
1970-01-01 00:00:44.500,44562.75,0.08631097674369814,-9.891883659362794,0.7946355462074279
1970-01-01 00:00:44.600,44665.42857142857,0.5459976941347122,-12.75774326324463,0.7582436859607696
1970-01-01 00:00:44.700,44762.666666666664,0.4957194596529007,-8.330385494232178,-0.2750937819480896
1970-01-01 00:00:44.800,44855.2,0.21464018300175663,-4.324406957626342,-1.9572598814964295
1970-01-01 00:00:44.900,44947.666666666664,1.8225860118865966,-11.283393669128419,-6.419094181060791
1970-01-01 00:00:45.000,45053.2,0.10498574972152704,-10.162907218933105,-1.039801824092865
1970-01-01 00:00:45.100,45158.857142857145,2.5173834323883058,-9.36899013519287,1.2922703586518764
1970-01-01 00:00:45.200,45293.0,1.4850035905838013,-9.785101890563965,0.2142810523509979
1970-01-01 00:00:45.300,45377.5,1.4610615968704224,-9.51455783843994,1.0881646871566772
1970-01-01 00:00:45.400,45444.5,1.4634557962417605,-9.47385597229004,0.4752490520477295
1970-01-01 00:00:45.500,45511.0,1.7507599592208862,-9.813833236694336,-0.333991140127182
1970-01-01 00:00:45.600,45610.0,3.067570924758911,-9.667786598205566,0.3124433159828186
1970-01-01 00:00:45.700,45709.5,3.316567897796631,-12.52167510986328,-1.035492181777954
1970-01-01 00:00:45.800,45820.0,-0.5704185366630554,-11.025298595428467,1.3275848627090454
1970-01-01 00:00:45.900,45943.5,-0.07003039121627805,-7.589619636535645,0.17597382515668875
1970-01-01 00:00:46.000,46047.0,-0.0329202748835086,-4.156333923339844,-1.2557587623596191
1970-01-01 00:00:46.100,46146.0,3.912724018096924,-12.085929870605469,-7.384915351867676
1970-01-01 00:00:46.200,46244.0,-3.1741127967834477,-8.87051773071289,-2.275688648223877
1970-01-01 00:00:46.300,46350.5,2.018910586833954,-8.718485593795776,2.286462664604187
1970-01-01 00:00:46.400,46444.0,0.4866214990615845,-8.705317497253418,0.9038111567497252
1970-01-01 00:00:46.500,46542.5,2.236783027648926,-10.06043529510498,2.699462413787842
1970-01-01 00:00:46.600,46641.5,2.2200236320495605,-9.36970853805542,0.180762231349945
1970-01-01 00:00:46.700,46732.666666666664,2.702455163002014,-9.87967348098755,0.301270380616188
1970-01-01 00:00:46.800,46859.5,0.4842272996902466,-11.927912712097168,-0.5279214978218079
1970-01-01 00:00:46.900,46932.666666666664,-0.0005985498428344449,-14.41070032119751,0.5770026203244925
1970-01-01 00:00:47.000,47058.0,1.269525408744812,-9.006986618041992,0.5398924946784973
1970-01-01 00:00:47.100,47143.5,0.17657237872481343,-4.4939165115356445,-1.7860743999481201
1970-01-01 00:00:47.200,47276.0,2.5528175830841064,-7.539340972900391,-8.74721622467041
1970-01-01 00:00:47.300,47352.5,-1.316212385892868,-9.141062021255493,-3.5494041442871094
1970-01-01 00:00:47.400,47494.0,2.9765913486480717,-7.345410823822021,0.4800374507904053
1970-01-01 00:00:47.500,47561.0,0.5512649528682232,-9.072827339172363,-0.790086567401886
1970-01-01 00:00:47.600,47644.0,0.5632359385490417,-9.33499240875244,0.1592144072055816
1970-01-01 00:00:47.700,47751.0,1.6047136783599854,-9.078812599182129,-1.0390835478901863
1970-01-01 00:00:47.800,47846.0,1.549647092819214,-10.237606048583984,-0.6739677786827087
1970-01-01 00:00:47.900,47912.0,2.325368404388428,-11.343728065490724,-0.8367735147476196
1970-01-01 00:00:48.000,48022.0,2.7263972759246826,-10.256760120391846,0.9532913391788801
1970-01-01 00:00:48.100,48129.0,2.6198551654815674,-8.935160636901855,1.0283095836639404
1970-01-01 00:00:48.200,48228.0,3.098695516586304,-8.437167167663574,-0.2286462634801864
1970-01-01 00:00:48.300,48352.5,3.752312660217285,-7.327454328536987,-2.5426422357559204
1970-01-01 00:00:48.400,48445.5,2.722805976867676,-6.083666324615479,-1.1815385222434998
1970-01-01 00:00:48.500,48557.0,0.275931715965271,-14.371195793151855,-0.672770619392395
1970-01-01 00:00:48.600,48644.0,3.4817678928375244,-12.543222427368164,0.2142810523509979
1970-01-01 00:00:48.700,48760.5,-0.3848679065704349,-9.58398962020874,0.8331821858882904
1970-01-01 00:00:48.800,48844.0,0.5201402902603149,-9.816226959228516,0.930147349834442
1970-01-01 00:00:48.900,48944.0,2.926313102245331,-9.828197956085205,0.7553706541657449
1970-01-01 00:00:49.000,49047.0,2.880823135375977,-11.678915977478027,-0.2286462634801864
1970-01-01 00:00:49.100,49144.0,-0.19093758550782994,-12.243947505950928,0.46327804028987885
1970-01-01 00:00:49.200,49259.5,-0.6242880821228027,-11.113883972167969,0.2885012924671173
1970-01-01 00:00:49.300,49355.666666666664,0.33419065922498703,-5.3430601755778,-1.6236678163210552
1970-01-01 00:00:49.400,49477.5,0.8122329115867615,-7.111976146697998,-3.8558619022369385
1970-01-01 00:00:49.500,49521.666666666664,-1.6921020448207857,-11.830947399139404,-3.807977795600891
1970-01-01 00:00:49.600,49616.0,-3.822941541671753,-14.00607967376709,-4.746504783630371
1970-01-01 00:00:49.700,49740.0,2.5073277950286865,-9.85373592376709,1.4760253354907036
1970-01-01 00:00:49.800,49844.0,1.1162965297698977,-9.57441234588623,0.424970805644989
1970-01-01 00:00:49.900,49952.0,1.5221137404441833,-9.387664794921875,0.3471592366695404
1970-01-01 00:00:50.000,50043.5,3.2375593185424805,-9.716867446899414,0.9780313968658448
1970-01-01 00:00:50.100,50155.333333333336,3.6589386463165283,-11.079168319702148,-0.6236895471811295
1970-01-01 00:00:50.200,50260.5,0.4519055485725403,-12.56297492980957,0.24540565721690655
1970-01-01 00:00:50.300,50345.166666666664,0.5503072500228882,-9.371863079071044,0.2597708836197853
1970-01-01 00:00:50.400,50447.4,-0.5438429236412048,-5.456385612487793,-0.46950294971466067
1970-01-01 00:00:50.500,50547.0,1.3796587586402893,-9.522697925567627,-5.62182502746582
1970-01-01 00:00:50.600,50649.42857142857,-0.4045003831386566,-10.936234664916991,-3.0691271305084227
1970-01-01 00:00:50.700,50738.833333333336,2.457049512863159,-9.086953258514404,1.1207258224487304
1970-01-01 00:00:50.800,50844.333333333336,1.4634557843208313,-9.955569648742676,1.4798560738563538
1970-01-01 00:00:50.900,50943.6,1.52043776512146,-9.627084922790527,1.104445230960846
1970-01-01 00:00:51.000,51042.6,1.3514071702957153,-9.571539688110352,-0.220984810590744
1970-01-01 00:00:51.100,51142.0,3.754706859588623,-9.17745418548584,-0.3066972270607949
1970-01-01 00:00:51.200,51249.57142857143,2.2813151359558104,-11.637256813049316,-0.9167398273944855
1970-01-01 00:00:51.300,51349.833333333336,-0.2771288573741913,-12.35408083597819,0.924880101531744
1970-01-01 00:00:51.400,51449.375,0.7795121719439825,-10.048464584350587,0.06823474308475848
1970-01-01 00:00:51.500,51551.666666666664,0.07433996126055717,-5.983109951019287,-0.6064513087272644
1970-01-01 00:00:51.600,51657.4,1.0296264544129372,-8.748412895202637,-5.098452711105347
1970-01-01 00:00:51.700,51759.42857142857,0.349194324016571,-10.331459236145019,-2.121023213863373
1970-01-01 00:00:51.800,51855.8,1.5922638520598411,-9.887095260620118,1.3237541437149047
1970-01-01 00:00:51.900,51955.0,2.0792444705963136,-10.001538276672363,0.8798691418021918
1970-01-01 00:00:52.000,52054.0,1.4222754955291748,-9.686461067199707,0.7290344201028347
1970-01-01 00:00:52.100,52149.0,1.3016077637672425,-9.507374954223632,-0.624647225998342
1970-01-01 00:00:52.200,52252.2,3.4889503955841064,-9.431239128112793,-0.1501164495944977
1970-01-01 00:00:52.300,52351.5,1.0856507301330567,-11.215398406982422,-1.0632649779319763
1970-01-01 00:00:52.400,52457.5,-0.8067262291908264,-13.739844512939452,0.2765303015708923
1970-01-01 00:00:52.500,52556.5,0.34392708241939546,-9.264124011993408,-0.09265560712665317
1970-01-01 00:00:52.600,52645.833333333336,0.4784812182188034,-5.019204473495483,-1.5899893522262574
1970-01-01 00:00:52.700,52748.2,0.7667430818080903,-9.105628108978271,-6.32093186378479
1970-01-01 00:00:52.800,52847.4,0.5383362412452698,-10.387962341308594,0.33782187700271604
1970-01-01 00:00:52.900,52946.8,2.2928072929382326,-10.926657676696777,1.6230292856693267
1970-01-01 00:00:53.000,53052.5,2.2372617721557617,-10.189243507385253,0.2621650755405426
1970-01-01 00:00:53.100,53136.71428571428,2.0806810021400453,-8.539159965515136,-0.6921637058258057
1970-01-01 00:00:53.200,53237.5,1.5549143195152282,-8.815929222106934,-0.26982653439044946
1970-01-01 00:00:53.300,53340.0,2.5221717834472654,-9.901939582824706,0.4853046804666519
1970-01-01 00:00:53.400,53445.25,2.845867872238159,-11.552502059936524,0.26599583625793455
1970-01-01 00:00:53.500,53545.0,-2.1474792122840882,-12.13381404876709,-0.3699041664600372
1970-01-01 00:00:53.600,53648.375,-0.8349778413772583,-13.22221851348877,-0.2559401750564575
1970-01-01 00:00:53.700,53781.0,-0.9570821523666382,-9.730035781860352,-1.8064252138137815
1970-01-01 00:00:53.800,53853.5,-0.03890576958656311,-3.920505166053772,-0.7769184410572052
1970-01-01 00:00:53.900,53954.0,1.1378443241119385,-4.242525577545166,-3.2740707397460938
1970-01-01 00:00:54.000,54043.333333333336,0.558447519938151,-15.040375232696533,-6.722918152809143
1970-01-01 00:00:54.100,54155.5,0.5895721912384033,-8.361749410629272,0.1472434103488922
1970-01-01 00:00:54.200,54221.0,1.0971429347991943,-8.219294548034668,2.297236442565918
1970-01-01 00:00:54.300,54316.5,2.050035238265991,-9.615114212036133,0.3986345827579498
1970-01-01 00:00:54.400,54416.0,1.932719349861145,-9.6989107131958,1.535880446434021
1970-01-01 00:00:54.500,54515.0,0.4195838570594787,-9.660603523254396,0.1256955862045288
1970-01-01 00:00:54.600,54663.0,3.0172927379608154,-11.473014831542969,-0.12928685545921337
1970-01-01 00:00:54.700,54754.0,-2.956240653991699,-9.078812599182127,0.910993754863739
1970-01-01 00:00:54.800,54852.0,0.656609833240509,-13.951013565063477,0.424970805644989
1970-01-01 00:00:54.900,54951.0,0.2064998894929886,-8.645462036132812,-0.4010287821292877
1970-01-01 00:00:55.000,55050.0,0.8505401611328125,-4.508281707763672,-1.4760253429412842
1970-01-01 00:00:55.100,55149.0,2.1984755992889404,-6.718130111694336,-5.261258125305176
1970-01-01 00:00:55.200,55261.333333333336,-1.6430209577083588,-9.454702615737915,-0.871489405632019
1970-01-01 00:00:55.300,55367.0,1.777096152305603,-8.978256225585938,1.042674899101257
1970-01-01 00:00:55.400,55477.0,1.6334441304206848,-9.3134446144104,0.8295908719301224
1970-01-01 00:00:55.500,55518.0,2.2152352333068848,-9.823410034179688,0.8391677141189575
1970-01-01 00:00:55.600,55632.666666666664,1.5915456116199493,-9.554460843404135,0.32441432029008865
1970-01-01 00:00:55.700,55784.0,3.321356296539306,-10.711658477783203,0.9636662006378174
1970-01-01 00:00:55.800,55854.5,-1.0049661584198475,-11.704054832458496,-2.001552641391754
1970-01-01 00:00:55.900,55982.0,1.080383539199829,-14.329297065734863,0.4800374507904053
1970-01-01 00:00:56.000,56021.0,0.4435258507728576,-9.265560150146484,0.6356605291366577
1970-01-01 00:00:56.100,56101.0,1.0947487354278564,-8.916007041931152,0.2980781197547912
1970-01-01 00:00:56.200,56210.0,0.8768763914704324,-6.925228357315063,-1.5873557478189468
1970-01-01 00:00:56.300,56320.0,2.6868927478790283,-11.379640579223633,-5.0050787925720215
1970-01-01 00:00:56.400,56419.5,1.2779051661491394,-10.98699188232422,0.7050924301147461
1970-01-01 00:00:56.500,56528.333333333336,0.8369729916254679,-9.149441719055176,1.8602946996688843
1970-01-01 00:00:56.600,56636.5,1.6956933736801147,-10.43273401260376,0.7936778664588928
1970-01-01 00:00:56.700,56736.0,1.726817965507507,-9.153033256530762,1.7274165153503418
1970-01-01 00:00:56.800,56835.0,1.4945803880691528,-8.966285705566406,0.1496376097202301
1970-01-01 00:00:56.900,56943.5,1.3150152564048767,-9.704896926879883,0.5602432135492563
1970-01-01 00:00:57.000,57075.333333333336,-0.28790275752544403,-10.812214851379395,-0.7493851445615292
1970-01-01 00:00:57.100,57154.0,-1.423951506614685,-8.966285705566406,-1.334767460823059
1970-01-01 00:00:57.200,57269.5,-0.6171054840087891,-8.82742166519165,-2.3175873160362244
1970-01-01 00:00:57.300,57370.0,-1.103128433227539,-9.337387084960938,-3.075352191925049
1970-01-01 00:00:57.400,57469.5,-0.5404910445213318,-8.71489429473877,-2.5270798206329346
1970-01-01 00:00:57.500,57541.0,-1.675342679023743,-10.050858497619627,-2.663549423217773
1970-01-01 00:00:57.600,57642.666666666664,-2.0404584407806396,-9.749189058939615,-0.8810662478208542
1970-01-01 00:00:57.700,57788.5,4.288613796234131,-10.237606048583984,3.2094273567199707
1970-01-01 00:00:57.800,57854.0,0.527322918176651,-9.241618633270264,0.02633620798587802
1970-01-01 00:00:57.900,57986.0,2.543240785598755,-9.68694019317627,0.6260837316513062
1970-01-01 00:00:58.000,58020.0,0.2376245260238647,-9.861717224121094,0.3675099611282348
1970-01-01 00:00:58.100,58104.5,0.5488707423210144,-9.622296333312988,0.934935748577118
1970-01-01 00:00:58.200,58203.5,2.1505916118621826,-11.523292541503906,0.1472434103488922
1970-01-01 00:00:58.300,58319.666666666664,2.7335797548294067,-12.124237060546875,0.08858537673950195
1970-01-01 00:00:58.400,58421.0,2.478597402572632,-12.229581832885742,-0.4680664241313934
1970-01-01 00:00:58.500,58511.0,1.111508123576641,-7.963114976882935,0.25857378728687763
1970-01-01 00:00:58.600,58619.5,-0.5213374495506287,-5.547365188598633,-0.5351040959358215
1970-01-01 00:00:58.700,58765.42857142857,1.4352041959762574,-9.31488094329834,-3.0126240372657778
1970-01-01 00:00:58.800,58864.28571428572,0.4128800749778748,-9.185594272613525,0.9095571994781494
1970-01-01 00:00:58.900,58961.5,2.7012580186128616,-10.274477195739745,0.5882553547620774
1970-01-01 00:00:59.000,59060.5,0.24720132127404226,-9.408255195617675,0.1280897855758667
1970-01-01 00:00:59.100,59159.833333333336,1.659301471710205,-9.368989944458008,-0.06967126871459182
1970-01-01 00:00:59.200,59243.71428571428,2.0227412939071656,-9.900024032592773,0.059136778116226175
1970-01-01 00:00:59.300,59351.5,4.481586456298828,-11.511800384521484,-0.7242460072040557
1970-01-01 00:00:59.400,59453.42857142857,0.8960300035774708,-10.765767478942871,1.5191209435462951
1970-01-01 00:00:59.500,59558.28571428572,3.0790630340576173,-11.951375961303711,0.5260061144828796
1970-01-01 00:00:59.600,59655.5,1.545337525010109,-8.056488704681396,0.668700534105301
1970-01-01 00:00:59.700,59741.5,-0.6496666312217713,-6.0257268905639645,-1.1585542112588882
1970-01-01 00:00:59.800,59847.2,4.310161566734314,-11.097603797912598,-5.624219226837158
1970-01-01 00:00:59.900,59946.4,0.22709003686904908,-11.036312294006347,-1.1657368183135985
1970-01-01 00:01:00.000,60045.5,2.1314380764961243,-8.788156604766845,1.5100229978561401
1970-01-01 00:01:00.100,60151.5,1.3925873905420303,-9.58734130859375,-0.3545812666416168
1970-01-01 00:01:00.200,60250.5,1.2800599336624146,-9.206184387207031,-0.1391031183302402
1970-01-01 00:01:00.300,60336.5,1.2111069321632386,-9.618465995788574,-0.03758896552026268
1970-01-01 00:01:00.400,60435.5,2.9583953380584718,-10.660901641845703,0.027054476737976108
1970-01-01 00:01:00.500,60537.833333333336,4.150707721710205,-11.235030937194825,-1.3285425126552581
1970-01-01 00:01:00.600,60637.0,2.0193894490599633,-11.427045822143555,2.0664354801177978
1970-01-01 00:01:00.700,60748.0,3.344899296760559,-11.425529479980469,0.23902114170293012
1970-01-01 00:01:00.800,60858.5,0.9606734216213226,-6.771760082244873,-0.7510610580444336
1970-01-01 00:01:00.900,60966.28571428572,-0.01855507493019104,-4.8540044784545895,-2.9843724727630616
1970-01-01 00:01:01.000,61065.28571428572,2.639966535568237,-10.502883911132812,-6.7068772315979
1970-01-01 00:01:01.100,61156.0,-0.19859903752803804,-12.025596332550048,0.2827551692724226
1970-01-01 00:01:01.200,61248.5,3.3864785373210906,-9.389101219177245,1.3491326808929442
1970-01-01 00:01:01.300,61351.0,-0.4399345725774765,-9.761639022827149,-0.056263745576143255
1970-01-01 00:01:01.400,61453.2,1.6329652667045593,-8.670362091064453,0.5370194375514984
1970-01-01 00:01:01.500,61560.125,1.287242555618286,-9.247364807128907,-0.0912190854549408
1970-01-01 00:01:01.600,61654.71428571428,4.685572385787964,-11.390175056457519,0.17022774368524546
1970-01-01 00:01:01.700,61751.333333333336,1.1038466691970825,-11.322658729553222,-0.19943701624870291
1970-01-01 00:01:01.800,61850.166666666664,1.9624074697494507,-12.54705352783203,0.919612853974104
1970-01-01 00:01:01.900,61942.833333333336,2.048119831085205,-9.477207946777344,0.7295132637023926
1970-01-01 00:01:02.000,62045.0,-0.47153803110122683,-4.867411947250366,-0.22720974087715148
1970-01-01 00:01:02.100,62140.4,3.112462267279625,-8.492832064628601,-6.064513027667999
1970-01-01 00:01:02.200,62219.0,4.566341400146484,-18.148048400878903,-7.511807918548584
1970-01-01 00:01:02.300,62308.0,0.6494272351264954,-7.359776020050049,-6.123170852661133
1970-01-01 00:01:02.400,62460.0,3.449445962905884,-11.976994037628174,1.0043676495552063
1970-01-01 00:01:02.500,62537.5,-1.5029600858688354,-9.222464561462402,-0.4441244006156921
1970-01-01 00:01:02.600,62641.666666666664,1.290275201201439,-8.799888610839844,0.3292027413845062
1970-01-01 00:01:02.700,62753.5,1.786673069000244,-10.345345497131348,-0.09935936331748965
1970-01-01 00:01:02.800,62853.0,5.231929302215576,-11.598710060119629,0.22266075015068057
1970-01-01 00:01:02.900,62953.0,-2.233191728591919,-8.489839553833008,0.3962403833866119
1970-01-01 00:01:03.000,63043.0,2.251148223876953,-11.001357078552246,1.4305355548858645
1970-01-01 00:01:03.100,63140.5,1.3964180946350098,-10.776301383972168,0.7362170219421387
1970-01-01 00:01:03.200,63241.666666666664,0.13347673416137695,-5.48591423034668,-0.8068459443747997
1970-01-01 00:01:03.300,63353.0,4.025251388549805,-8.707711219787598,-6.640318393707275
1970-01-01 00:01:03.400,63442.0,0.8289923667907715,-11.72081470489502,-1.7657236456871033
1970-01-01 00:01:03.500,63542.0,2.670133501291275,-8.050503253936768,3.0190882682800293
1970-01-01 00:01:03.600,63664.333333333336,1.9626469612121582,-10.222043991088867,0.7505822572857143
1970-01-01 00:01:03.700,63753.0,1.4562731981277466,-9.641449928283691,1.236605167388916
1970-01-01 00:01:03.800,63841.666666666664,1.5592238306999209,-9.792284965515137,-0.23104047030210495
1970-01-01 00:01:03.900,63974.0,2.411559581756592,-10.53688144683838,0.6165069341659546
1970-01-01 00:01:04.000,64052.5,2.6258407086133957,-11.998541831970215,-0.5494692772626877
1970-01-01 00:01:04.100,64172.0,0.0389057770371437,-10.091560363769531,2.1942858695983887
1970-01-01 00:01:04.200,64219.0,2.1505916118621826,-10.936713218688965,0.5614402890205383
1970-01-01 00:01:04.300,64338.666666666664,0.4614823907613755,-6.825070858001709,0.4441244057379663
1970-01-01 00:01:04.400,64419.5,-0.8349778652191162,-4.527435302734375,-1.1791443824768066
1970-01-01 00:01:04.500,64530.5,2.0907366275787354,-7.094019651412964,-4.520252704620361
1970-01-01 00:01:04.600,64619.5,1.6023194789886477,-10.96304988861084,0.0825999602675437
1970-01-01 00:01:04.700,64737.666666666664,0.7595604807138443,-12.471396764119467,0.3363853693008425
1970-01-01 00:01:04.800,64852.5,2.35649311542511,-9.530119895935059,0.8068459704518318
1970-01-01 00:01:04.900,64952.0,1.5975310802459717,-9.332598686218262,0.2501940727233886
1970-01-01 00:01:05.000,65065.0,1.8620903491973877,-9.397241592407227,0.5219359844923019
1970-01-01 00:01:05.100,65153.5,3.314173698425293,-10.903194427490234,-0.3651157692074775
1970-01-01 00:01:05.200,65257.0,3.771466314792633,-11.769097328186035,1.1097124963998795
1970-01-01 00:01:05.300,65356.0,2.689286947250366,-13.115436553955078,2.6228480339050293
1970-01-01 00:01:05.400,65464.0,1.4155717492103577,-9.710882186889648,-0.014365211129188551
1970-01-01 00:01:05.500,65551.0,-0.0257376674562692,-5.822698593139648,0.4728548228740692
1970-01-01 00:01:05.600,65641.66666666667,0.4231751859188079,-8.519767045974731,-3.0597896575927734
1970-01-01 00:01:05.700,65778.0,4.233547210693359,-9.222464561462402,-4.976348400115967
1970-01-01 00:01:05.800,65852.5,0.07960721850395203,-7.508216381072998,-0.2693477272987367
1970-01-01 00:01:05.900,65976.0,1.9806033372879028,-12.100295066833496,1.8112136125564573
1970-01-01 00:01:06.000,66075.5,2.7730841636657715,-9.490615844726562,1.5119383335113523
1970-01-01 00:01:06.100,66152.5,2.2176294326782227,-9.306262016296387,1.4664485454559326
1970-01-01 00:01:06.200,66241.66666666667,2.423530697822571,-9.387664794921877,1.0546458661556244
1970-01-01 00:01:06.300,66353.0,3.405153274536133,-10.08437728881836,0.4201824069023132
1970-01-01 00:01:06.400,66420.0,3.5631706714630127,-13.567940711975098,-1.521515130996704
1970-01-01 00:01:06.500,66528.0,1.2024877667427063,-10.59194803237915,0.1879448369145394
1970-01-01 00:01:06.600,66653.0,0.5740098357200623,-10.101136684417725,-0.6332663744688034
1970-01-01 00:01:06.700,66753.0,0.4171896576881408,-5.7987565994262695,-1.1216834783554075
1970-01-01 00:01:06.800,66841.66666666667,3.0172927379608154,-7.5656774044036865,-5.179855465888977
1970-01-01 00:01:06.900,66953.0,2.009333848953247,-10.345345497131348,-5.313930511474609
1970-01-01 00:01:07.000,67041.66666666667,0.16101008653640747,-8.735244989395142,1.4520833194255829
1970-01-01 00:01:07.100,67152.5,3.754706859588623,-11.184513092041016,1.4856021404266355
1970-01-01 00:01:07.200,67245.5,0.7990648150444031,-8.834604263305664,-0.3986345827579498
1970-01-01 00:01:07.300,67345.0,2.8856115341186523,-9.344569206237791,0.1448491960763931
1970-01-01 00:01:07.400,67444.0,1.4873977899551392,-9.974244117736816,0.0395043268799781
1970-01-01 00:01:07.500,67559.5,3.4482489824295044,-11.341333866119387,-0.537498265504837
1970-01-01 00:01:07.600,67650.5,0.3429693877696991,-8.131906032562256,0.0849941596388816
1970-01-01 00:01:07.700,67763.0,2.3744494915008545,-10.54526138305664,0.7062894701957703
1970-01-01 00:01:07.800,67880.0,1.5544354915618896,-8.628703117370605,-0.7936778664588928
1970-01-01 00:01:07.900,67982.0,0.0389057770371437,-5.552153587341309,-1.4975731372833252
1970-01-01 00:01:08.000,68079.0,3.759495258331299,-10.086771965026855,-5.4695539474487305
1970-01-01 00:01:08.100,68180.0,2.421136379241944,-8.2312650680542,-2.4001872539520264
1970-01-01 00:01:08.200,68277.0,1.5783774852752686,-6.507440090179443,-1.890222191810608
1970-01-01 00:01:08.300,68362.0,2.4558523893356323,-9.228450298309326,0.3627215623855591
1970-01-01 00:01:08.400,68476.0,2.121861219406128,-9.35893440246582,0.7529764175415039
1970-01-01 00:01:08.500,68517.0,0.8672995567321777,-8.901641845703125,1.2988544702529907
1970-01-01 00:01:08.600,68613.5,1.1354501247406006,-9.428366661071776,0.951695203781128
1970-01-01 00:01:08.700,68713.0,3.7499184608459473,-10.08437728881836,1.7322049140930176
1970-01-01 00:01:08.800,68831.0,2.5611972212791443,-9.854534387588501,0.0023941993713378906
1970-01-01 00:01:08.900,68917.5,1.470638394355774,-11.446678161621094,0.3699041604995727
1970-01-01 00:01:09.000,69030.0,0.3585316985845566,-9.19972014427185,-0.259770892560482
1970-01-01 00:01:09.100,69120.0,0.2711433470249176,-4.4077253341674805,-0.2908954918384552
1970-01-01 00:01:09.200,69229.5,2.360084280371666,-10.479420900344849,-4.674678723017375
1970-01-01 00:01:09.300,69347.5,0.5333084464073182,-8.899248123168945,-4.413711071014404
1970-01-01 00:01:09.400,69446.5,1.9686323404312132,-7.874529361724853,-0.6212953329086304
1970-01-01 00:01:09.500,69551.0,2.1290438771247864,-10.14902114868164,1.661575973033905
1970-01-01 00:01:09.600,69650.5,1.1737574338912964,-9.583989143371582,0.4010287821292877
1970-01-01 00:01:09.700,69764.0,1.7088614702224731,-9.467870712280273,0.36152445897459984
1970-01-01 00:01:09.800,69882.5,2.27748441696167,-9.672574996948242,1.0450690984725952
1970-01-01 00:01:09.900,69982.0,4.207211017608643,-10.596736907958984,0.707486629486084
1970-01-01 00:01:10.000,70081.0,-0.4112041294574737,-11.59751319885254,0.1161187812685966
1970-01-01 00:01:10.100,70161.0,2.385223388671875,-12.378023147583008,0.14963760785758493
1970-01-01 00:01:10.200,70279.0,2.337339401245117,-10.17296314239502,0.4920084476470947
1970-01-01 00:01:10.300,70350.0,1.8441338539123535,-7.196970224380493,-0.8678981363773346
1970-01-01 00:01:10.400,70477.0,2.3684639930725098,-7.4986395835876465,-2.630030632019043
1970-01-01 00:01:10.500,70532.0,3.2854433059692383,-9.004592418670654,-3.421314239501953
1970-01-01 00:01:10.600,70636.0,1.6717513799667358,-8.56884765625,-2.558204412460327
1970-01-01 00:01:10.700,70717.0,-0.7775170207023621,-14.13057804107666,-0.5446808934211731
1970-01-01 00:01:10.800,70826.33333333333,3.081936150789261,-9.32541561126709,0.06224924325942993
1970-01-01 00:01:10.900,70917.5,1.10193133354187,-9.400832653045654,0.3363853394985199
1970-01-01 00:01:11.000,71012.5,2.2463598251342773,-9.938331127166748,0.3914519846439361
1970-01-01 00:01:11.100,71112.0,1.6262614727020264,-9.792284965515137,0.6572083830833435
1970-01-01 00:01:11.200,71231.5,1.9470844864845276,-9.870096683502197,0.6931214034557343
1970-01-01 00:01:11.300,71362.33333333333,1.6777367889881136,-10.126276016235352,-0.34356792767842625
1970-01-01 00:01:11.400,71451.0,0.0604535937309265,-11.974599838256836,-3.791218280792236
1970-01-01 00:01:11.500,71554.33333333333,2.9398802121480307,-10.430339813232422,0.9935937523841857
1970-01-01 00:01:11.600,71650.5,1.9638439416885376,-10.591948509216309,-0.1472434103488922
1970-01-01 00:01:11.700,71747.0,0.8170213103294373,-7.436390399932861,-0.2932897210121155
1970-01-01 00:01:11.800,71846.5,1.7723077535629272,-5.924452066421509,-3.147178173065185
1970-01-01 00:01:11.900,71962.0,1.9387048184871674,-11.870451927185059,-2.0733786821365356
1970-01-01 00:01:12.000,72064.0,1.080383539199829,-8.35097599029541,-0.767341673374176
1970-01-01 00:01:12.100,72150.5,1.955464243888855,-10.200496196746826,1.1671733558177948
1970-01-01 00:01:12.200,72282.0,1.0468647480010986,-9.785101890563965,0.8870517015457153
1970-01-01 00:01:12.300,72381.0,1.075595140457153,-9.301473617553713,0.930147349834442
1970-01-01 00:01:12.400,72438.0,2.3684641122817993,-9.921572049458822,0.5027823634445667
1970-01-01 00:01:12.500,72531.0,3.096301317214966,-9.804255485534668,1.069011092185974
1970-01-01 00:01:12.600,72633.5,2.9801826179027557,-10.72722053527832,0.8786720335483551
1970-01-01 00:01:12.700,72733.0,1.2144588232040403,-12.737153053283691,1.0283095836639404
1970-01-01 00:01:12.800,72833.5,2.1182700395584106,-10.135852813720703,-0.15083470940589908
1970-01-01 00:01:12.900,72934.0,0.7284358739852905,-6.586448669433594,-0.5758054852485657
1970-01-01 00:01:13.000,73034.5,2.549226224422455,-6.06930136680603,-3.7848339080810547
1970-01-01 00:01:13.100,73135.0,4.226364612579346,-14.36521053314209,-4.696226596832275
1970-01-01 00:01:13.200,73234.0,1.063624083995819,-10.358912467956543,-1.450886219739914
1970-01-01 00:01:13.300,73334.0,2.96701455116272,-7.501033782958984,3.1064767837524414
1970-01-01 00:01:13.400,73422.66666666667,0.7487865737639368,-9.038111368815104,0.3112462162971496
1970-01-01 00:01:13.500,73527.5,2.112284481525421,-9.309853076934814,0.8631097078323364
1970-01-01 00:01:13.600,73648.0,2.1338323056697845,-9.423577785491943,0.7757213711738586
1970-01-01 00:01:13.700,73733.5,4.010886192321777,-9.768342971801758,1.5837644338607788
1970-01-01 00:01:13.800,73834.0,2.1322361826896667,-11.476605892181396,0.7374141216278076
1970-01-01 00:01:13.900,73934.0,-0.1574187576770782,-10.194510459899902,0.7026981711387634
1970-01-01 00:01:14.000,74033.5,1.8860323429107666,-10.201693058013916,-0.299275204539299
1970-01-01 00:01:14.100,74165.5,0.5752069354057312,-6.5696892738342285,-1.2006921768188477
1970-01-01 00:01:14.200,74265.0,1.489791989326477,-5.181052684783936,-3.336320161819458
1970-01-01 00:01:14.300,74364.5,2.694075345993042,-12.087127208709717,-5.855020046234131
1970-01-01 00:01:14.400,74433.5,0.21248540282249453,-12.676100730895996,-0.3902548849582673
1970-01-01 00:01:14.500,74540.0,3.557185173034668,-8.961496829986572,1.5729905366897583
1970-01-01 00:01:14.600,74634.0,0.7739256806671619,-8.993818759918213,-0.2717418968677521
1970-01-01 00:01:14.700,74733.5,2.425924777984619,-9.279925346374512,0.6931213736534119
1970-01-01 00:01:14.800,74849.5,2.07397723197937,-9.364919662475586,0.1256955862045288
1970-01-01 00:01:14.900,74949.5,3.3776201009750366,-10.594342231750488,0.3303998485207557
1970-01-01 00:01:15.000,75098.0,2.3038206100463867,-10.187328338623049,-0.2717418968677521
1970-01-01 00:01:15.100,75133.0,5.9286417961120605,-13.232752799987791,-0.3866635859012604
1970-01-01 00:01:15.200,75233.5,3.9893386363983154,-10.779892921447754,0.05506664514541629
1970-01-01 00:01:15.300,75333.5,1.872864246368408,-7.542932510375977,-0.0442927330732345
1970-01-01 00:01:15.400,75441.5,2.9418753385543823,-8.109161376953125,-3.394977867603302
1970-01-01 00:01:15.500,75534.0,8.861538887023926,-12.466608047485352,-5.184643745422363
1970-01-01 00:01:15.600,75633.0,0.7523778676986694,-10.467450141906738,1.681926727294922
1970-01-01 00:01:15.700,75732.5,-0.9906009435653688,-5.020640850067139,3.3937808275222783
1970-01-01 00:01:15.800,75843.0,2.3122003078460693,-9.378087997436523,0.20151197910308838
1970-01-01 00:01:15.900,75950.5,2.263119101524353,-9.35654067993164,0.3746925592422485
1970-01-01 00:01:16.000,76049.5,0.702099621295929,-9.473855972290039,0.7697358727455139
1970-01-01 00:01:16.100,76149.0,2.167351007461548,-10.230423927307127,0.5781996846199036
1970-01-01 00:01:16.200,76233.5,4.273051500320435,-11.085153579711914,-0.48362872004508983
1970-01-01 00:01:16.300,76347.0,-0.3513490855693817,-9.01895809173584,1.7848774194717407
1970-01-01 00:01:16.400,76433.5,2.1601685285568237,-11.240777015686035,-0.385466480627656
1970-01-01 00:01:16.500,76534.5,1.0732009410858154,-7.599195957183838,-0.393846184015274
1970-01-01 00:01:16.600,76642.0,0.812232941389084,-5.213374137878418,-1.5310919880867004
1970-01-01 00:01:16.700,76783.5,6.534375190734863,-13.218387603759766,-5.292382717132568
1970-01-01 00:01:16.800,76882.5,-0.0568622909486293,-15.737088203430176,0.45010989904403687
1970-01-01 00:01:16.900,76934.0,2.382829189300537,-9.366117477416992,3.9157168865203857
1970-01-01 00:01:17.000,77054.0,2.3696611523628235,-10.396820545196533,1.3371616899967194
1970-01-01 00:01:17.100,77133.5,2.761113166809082,-9.417592525482178,1.116895079612732
1970-01-01 00:01:17.200,77219.5,2.0213048458099365,-9.138668060302734,1.0019733905792236
1970-01-01 00:01:17.300,77319.5,3.541622877120972,-8.923190116882324,0.4321534037590027
1970-01-01 00:01:17.400,77418.0,6.002861976623535,-12.148179054260254,0.6189011335372925
1970-01-01 00:01:17.500,77540.0,0.4100069999694822,-10.08198356628418,0.27054478228092194
1970-01-01 00:01:17.600,77667.0,0.6230909824371338,-8.688558101654053,-0.7449957629044851
1970-01-01 00:01:17.700,77753.5,0.9654618501663208,-5.213374376296997,-1.0115501880645752
1970-01-01 00:01:17.800,77860.5,3.186084032058716,-10.415974378585815,-4.463989019393921
1970-01-01 00:01:17.900,77954.0,0.5512649416923523,-9.35654067993164,-5.404910564422607
1970-01-01 00:01:18.000,78052.0,2.3086090087890625,-8.827422142028809,1.6148890256881714
1970-01-01 00:01:18.100,78151.5,2.497750997543335,-10.002974510192873,2.541445016860962
1970-01-01 00:01:18.200,78242.66666666667,0.9742405414581298,-9.399635791778564,1.152808129787445
1970-01-01 00:01:18.300,78372.5,2.0835540294647217,-9.498995304107666,0.8750807046890259
1970-01-01 00:01:18.400,78465.33333333333,3.187281012535095,-9.7312331199646,1.6962918639183044
1970-01-01 00:01:18.500,78520.5,6.146514415740967,-10.53688144683838,-0.4872200489044189
1970-01-01 00:01:18.600,78634.0,3.0316579788923264,-11.68609873453776,-0.33997665345668787
1970-01-01 00:01:18.700,78753.5,2.2463598251342773,-10.260351181030273,-0.7793126702308655
1970-01-01 00:01:18.800,78842.66666666667,-0.11791443452239031,-7.48188042640686,-0.6388528247674307
1970-01-01 00:01:18.900,78954.0,1.4131776094436646,-5.5114521980285645,-2.3738510608673096
1970-01-01 00:01:19.000,79020.5,5.172074317932129,-7.706935405731201,-6.336254596710205
1970-01-01 00:01:19.100,79129.0,1.956661343574524,-12.549208164215088,-2.6791116446256638
1970-01-01 00:01:19.200,79220.0,1.8608932495117188,-9.47385597229004,3.70742130279541
1970-01-01 00:01:19.300,79327.5,1.821388989686966,-9.218474706013998,1.7501614540815353
1970-01-01 00:01:19.400,79420.0,1.0947487354278564,-9.3828763961792,0.7481880187988281
1970-01-01 00:01:19.500,79539.66666666667,2.679710268974304,-9.20211410522461,0.6260837316513062
1970-01-01 00:01:19.600,79620.0,2.739565372467041,-10.35252857208252,1.8183962106704712
1970-01-01 00:01:19.700,79741.66666666667,2.295440837740898,-9.692925453186035,0.30047231912612915
1970-01-01 00:01:19.800,79862.0,0.8301894068717957,-10.3309805393219,-0.0670376569032669
1970-01-01 00:01:19.900,79954.0,1.4203602075576782,-10.26394271850586,-0.1616086214780807
1970-01-01 00:01:20.000,80061.0,0.8696937561035156,-7.228094577789307,-1.259350061416626
1970-01-01 00:01:20.100,80155.5,0.9654618501663208,-5.993883848190308,-2.618059635162353
1970-01-01 00:01:20.200,80261.0,1.9530699253082275,-9.747992038726807,-4.141968846321106
1970-01-01 00:01:20.300,80354.0,0.2711433470249176,-11.075576782226562,0.0035913025494664
1970-01-01 00:01:20.400,80475.66666666667,1.1127052046358585,-7.692569732666016,-0.20709843561053276
1970-01-01 00:01:20.500,80542.0,0.9870096445083618,-8.731653213500977,-0.2190694510936737
1970-01-01 00:01:20.600,80642.66666666667,1.857301950454712,-9.50498104095459,0.21986752003431317
1970-01-01 00:01:20.700,80769.0,1.7818846702575684,-9.263166427612305,-0.6428431272506714
1970-01-01 00:01:20.800,80853.5,2.9765912294387817,-10.329782962799072,0.2777274101972581
1970-01-01 00:01:20.900,80967.0,4.291007995605469,-12.054805755615234,0.0323217213153839
1970-01-01 00:01:21.000,81020.5,6.287772178649902,-12.746729850769045,4.073734283447266
1970-01-01 00:01:21.100,81122.33333333333,4.431068778038025,-10.764330863952637,1.0011753539244335
1970-01-01 00:01:21.200,81220.0,1.8010382652282717,-9.208099365234377,0.1424549967050552
1970-01-01 00:01:21.300,81321.0,1.3233950436115265,-6.647501230239868,-1.3862428069114685
1970-01-01 00:01:21.400,81420.5,5.234323501586914,-9.352948665618896,-3.276464939117432
1970-01-01 00:01:21.500,81518.0,2.830544948577881,-9.980628649393717,-2.562992930412293
1970-01-01 00:01:21.600,81653.5,2.1039047241210938,-10.54645824432373,1.4053964018821719
1970-01-01 00:01:21.700,81753.0,1.8872294425964355,-9.248801231384276,-0.2885012924671173
1970-01-01 00:01:21.800,81864.5,0.8265981376171112,-9.340977668762207,0.8271966725587845
1970-01-01 00:01:21.900,81954.0,0.9391255974769592,-9.694122314453123,1.555034041404724
1970-01-01 00:01:22.000,82072.0,2.846107244491577,-10.406397342681885,1.0905588865280151
1970-01-01 00:01:22.100,82155.0,2.9765913486480717,-12.507309913635254,-0.1089361757040023
1970-01-01 00:01:22.200,82262.5,0.5117606073617935,-11.403582572937012,0.2190694510936737
1970-01-01 00:01:22.300,82354.0,1.0516531467437744,-10.745177268981934,-0.4034229815006256
1970-01-01 00:01:22.400,82454.0,0.2867056503891945,-8.146271228790283,-0.6117185354232788
1970-01-01 00:01:22.500,82525.0,0.9367313981056212,-5.60722017288208,-1.6747441291809082
1970-01-01 00:01:22.600,82638.0,3.1473777294158936,-8.082824945449829,-3.1244332790374756
1970-01-01 00:01:22.700,82759.33333333333,0.3010708577930927,-12.751518249511719,0.4249707758426665
1970-01-01 00:01:22.800,82871.0,-1.953070044517517,-5.729324817657471,0.1616086214780807
1970-01-01 00:01:22.900,82937.0,1.3525244692961376,-9.125499725341797,0.43095631897449493
1970-01-01 00:01:23.000,83069.5,0.6925228238105774,-9.423578262329102,0.9205705523490906
1970-01-01 00:01:23.100,83158.33333333333,1.3329717516899109,-9.684545993804932,0.79128364721934
1970-01-01 00:01:23.200,83247.5,3.2399535179138184,-9.023746490478516,1.222239971160889
1970-01-01 00:01:23.300,83314.0,3.87202262878418,-10.967838287353516,-0.0323217213153839
1970-01-01 00:01:23.400,83406.5,3.1513679027557373,-10.383652687072754,-2.6420016288757324
1970-01-01 00:01:23.500,83505.5,2.3277626037597656,-13.534422397613525,0.2334346622228622
1970-01-01 00:01:23.600,83626.0,0.0389057993888855,-8.109161138534546,-0.3076549172401428
1970-01-01 00:01:23.700,83714.0,0.0580593906342983,-5.367800235748291,-1.4089876413345337
1970-01-01 00:01:23.800,83825.0,4.747103333473206,-8.008604526519775,-3.400963544845581
1970-01-01 00:01:23.900,83942.0,0.9319429993629456,-15.150507926940918,0.6643909811973572
1970-01-01 00:01:24.000,84041.0,0.1203086376190185,-9.289502143859863,2.223016262054444
1970-01-01 00:01:24.100,84140.0,0.7882909178733826,-9.612719535827637,2.0458452701568604
1970-01-01 00:01:24.200,84239.5,1.8154034614562988,-9.399636268615724,1.7753005027770996
1970-01-01 00:01:24.300,84359.0,2.519298791885376,-9.704896450042725,1.3132195994257927
1970-01-01 00:01:24.400,84448.0,2.203263998031616,-10.5344877243042,-0.2214636504650116
1970-01-01 00:01:24.500,84551.0,2.546832174062729,-11.992556095123291,0.20470425486564636
1970-01-01 00:01:24.600,84676.0,1.370081901550293,-14.915876388549805,-0.1185129806399345
1970-01-01 00:01:24.700,84775.0,-0.3130418658256531,-9.950302124023438,0.3770867586135864
1970-01-01 00:01:24.800,84874.0,0.3477577865123749,-5.700594425201416,-0.7122750282287598
1970-01-01 00:01:24.900,84973.0,5.564723491668701,-5.676652431488037,-4.851849555969238
1970-01-01 00:01:25.000,85072.0,-2.405574083328247,-11.592724800109863,-4.442441463470459
1970-01-01 00:01:25.100,85114.0,4.970961093902588,-9.217676162719728,2.337938070297241
1970-01-01 00:01:25.200,85211.0,-1.5628151893615725,-8.951920509338379,-0.456095427274704
1970-01-01 00:01:25.300,85310.0,1.932719349861145,-9.63187313079834,0.6428431272506714
1970-01-01 00:01:25.400,85409.5,1.4155718088150024,-9.287108421325684,0.9660604000091552
1970-01-01 00:01:25.500,85542.66666666667,2.1226593653361,-9.546480178833008,1.8335594534873962
1970-01-01 00:01:25.600,85647.0,4.520851135253906,-10.769119262695312,2.6132712364196777
1970-01-01 00:01:25.700,85714.0,0.67815762758255,-12.588712692260742,-1.1073182821273804
1970-01-01 00:01:25.800,85819.33333333333,1.0097545087337494,-9.804255803426107,0.5123591423034668
1970-01-01 00:01:25.900,85945.0,2.08594822883606,-10.881647109985352,-1.6508020162582395
1970-01-01 00:01:26.000,86044.0,-1.469441294670105,-8.439560890197754,-2.1128830909729004
1970-01-01 00:01:26.100,86143.0,3.539228677749634,-5.963956356048584,-3.872621297836304
1970-01-01 00:01:26.200,86242.0,0.982221245765686,-8.221688270568848,-4.406527996063232
1970-01-01 00:01:26.300,86354.66666666667,0.024540573358535808,-10.609905242919922,1.1216834584871929
1970-01-01 00:01:26.400,86447.0,3.4841620922088623,-10.12747287750244,1.0043675899505615
1970-01-01 00:01:26.500,86549.33333333333,0.8900444805622101,-9.124302387237549,0.5973533391952515
1970-01-01 00:01:26.600,86678.0,4.235941410064697,-8.990227699279785,-0.7649474143981934
1970-01-01 00:01:26.700,86777.5,2.986168146133423,-10.280701637268066,-0.4369418025016784
1970-01-01 00:01:26.800,86877.0,-0.3489548861980438,-10.213664054870604,0.2406172752380371
1970-01-01 00:01:26.900,86947.0,4.227561593055725,-8.807071208953857,1.398213803768158
1970-01-01 00:01:27.000,87075.0,0.1298854351043701,-12.562376022338867,1.543063044548035
1970-01-01 00:01:27.100,87158.33333333333,-0.39564181864261627,-10.687716007232666,1.8794482946395874
1970-01-01 00:01:27.200,87274.0,1.3772644996643066,-13.036428451538086,-0.1783680319786071
1970-01-01 00:01:27.300,87314.0,-0.8684966564178467,-7.433996200561523,-0.2525882720947265
1970-01-01 00:01:27.400,87435.0,0.8337807655334474,-4.875791788101196,-1.9009961485862732
1970-01-01 00:01:27.500,87514.0,5.40910005569458,-5.846640586853027,-4.610035419464111
1970-01-01 00:01:27.600,87628.5,0.7547721117734909,-13.982138156890867,-1.8662801813334227
1970-01-01 00:01:27.700,87714.0,1.920748353004456,-16.972496032714844,-2.565387010574341
1970-01-01 00:01:27.800,87827.5,0.587177962064743,-8.000225067138672,2.7928363382816315
1970-01-01 00:01:27.900,87928.0,-0.375291109085083,-9.852140426635742,0.4153940081596374
1970-01-01 00:01:28.000,88027.0,2.646191358566284,-9.57201862335205,0.8056488633155823
1970-01-01 00:01:28.100,88152.0,2.155380129814148,-9.769539833068848,0.8283937945961952
1970-01-01 00:01:28.200,88245.0,4.654926776885986,-11.489773750305176,0.5758054852485657
1970-01-01 00:01:28.300,88356.33333333333,0.25677812099456787,-11.352107524871826,0.010773897171020508
1970-01-01 00:01:28.400,88445.0,1.4538789987564087,-12.835315704345703,-0.7649474143981934
1970-01-01 00:01:28.500,88542.0,0.414795458316803,-9.682151794433594,0.2861070930957794
1970-01-01 00:01:28.600,88641.5,-0.1143231317400932,-5.578489780426025,-0.7194576263427734
1970-01-01 00:01:28.700,88757.66666666667,4.50409197807312,-11.058817625045776,-5.436034917831421
1970-01-01 00:01:28.800,88860.0,-0.6147112846374512,-9.646238327026367,-5.175066947937012
1970-01-01 00:01:28.900,88945.0,0.21607670187950134,-9.423577626546225,1.885433852672577
1970-01-01 00:01:29.000,89078.0,1.7363947629928589,-8.884882926940918,0.4441244006156921
1970-01-01 00:01:29.100,89177.0,1.422754406929016,-8.971074104309082,0.4920084476470947
1970-01-01 00:01:29.200,89247.0,0.6015431880950928,-9.65342140197754,0.2645592987537384
1970-01-01 00:01:29.300,89353.5,2.3672670125961304,-10.030508041381836,1.3251906633377075
1970-01-01 00:01:29.400,89445.0,3.831321239471436,-11.884817123413086,0.0754173547029495
1970-01-01 00:01:29.500,89545.0,1.1546037594477334,-11.2878630956014,0.5454789499441783
1970-01-01 00:01:29.600,89645.0,4.40353536605835,-11.36048698425293,-0.8750807046890259
1970-01-01 00:01:29.700,89752.0,0.21966802328824997,-9.331401348114014,0.16280571371316915
1970-01-01 00:01:29.800,89845.0,0.3980360329151153,-5.736507415771484,-1.6675615310668943
1970-01-01 00:01:29.900,89945.5,2.709637761116028,-9.569624185562134,-4.367023825645447
1970-01-01 00:01:30.000,90045.0,1.911171555519104,-10.682928085327148,-4.619612216949463
1970-01-01 00:01:30.100,90154.0,-0.08439558744430553,-11.063606262207031,1.7908628582954407
1970-01-01 00:01:30.200,90245.0,1.7842788696289062,-9.684545516967772,1.0881646871566772
1970-01-01 00:01:30.300,90353.0,1.088763251900673,-9.536105473836264,0.46806644462049
1970-01-01 00:01:30.400,90447.0,1.7363947629928589,-9.765948295593262,1.0809820890426636
1970-01-01 00:01:30.500,90541.75,3.7195918560028076,-9.676565488179525,1.459265907605489
1970-01-01 00:01:30.600,90645.0,2.69646954536438,-10.520122528076172,-1.0809820890426636
1970-01-01 00:01:30.700,90756.33333333333,-1.361702173948288,-11.43949556350708,-1.1121067106723785
1970-01-01 00:01:30.800,90862.5,1.875258445739746,-12.425907135009766,-1.3204022645950315
1970-01-01 00:01:30.900,90945.0,0.46427559852600103,-7.75801150004069,-1.4233528971672058
1970-01-01 00:01:31.000,91046.5,1.755548357963562,-6.621164798736572,-2.278082847595215
1970-01-01 00:01:31.100,91145.5,3.929483652114868,-9.443928480148315,-5.011064171791077
1970-01-01 00:01:31.200,91245.0,-0.166995570063591,-8.65982723236084,-3.824737310409546
1970-01-01 00:01:31.300,91357.0,1.577180415391922,-10.35372543334961,1.171961784362793
1970-01-01 00:01:31.400,91445.0,1.2934675216674805,-10.333374977111816,4.440047264099121
1970-01-01 00:01:31.500,91522.33333333333,1.8213889598846436,-9.391255855560303,0.5770025866804644
1970-01-01 00:01:31.600,91616.5,1.614290475845337,-9.610325813293457,1.521515130996704
1970-01-01 00:01:31.700,91756.33333333333,0.9534908533096313,-9.43794298171997,0.7709329426288605
1970-01-01 00:01:31.800,91845.0,0.74040687084198,-10.299856185913086,1.9812018871307373
1970-01-01 00:01:31.900,91945.5,3.7547069787979126,-11.398794174194336,0.8619126230478287
1970-01-01 00:01:32.000,92045.0,2.0260932445526123,-6.746860504150391,1.238999366760254
1970-01-01 00:01:32.100,92131.5,-0.1334767490625381,-13.39555835723877,0.6524199843406677
1970-01-01 00:01:32.200,92231.0,0.2136825025081634,-9.84495735168457,-0.0418985299766063
1970-01-01 00:01:32.300,92335.0,0.49140989780426025,-7.254431247711182,-0.9145850539207458
1970-01-01 00:01:32.400,92447.0,1.470638394355774,-6.754043102264404,-1.844732403755188
1970-01-01 00:01:32.500,92545.5,2.344521999359131,-9.160215854644775,-4.651933908462524
1970-01-01 00:01:32.600,92645.0,-1.1629834175109863,-12.193669319152832,1.3012486696243286
1970-01-01 00:01:32.700,92756.33333333333,-0.3705027103424072,-11.064803123474121,2.6192565709352493
1970-01-01 00:01:32.800,92847.5,3.421912670135498,-9.818621635437012,1.8758569955825808
1970-01-01 00:01:32.900,92956.33333333333,2.0109298626581826,-9.184157371520996,1.0666168928146362
1970-01-01 00:01:33.000,93027.5,2.7228058576583862,-9.188945770263672,0.7661445438861847
1970-01-01 00:01:33.100,93159.0,3.232770800590515,-9.599551677703857,1.0127473324537277
1970-01-01 00:01:33.200,93248.0,3.862445831298828,-10.347740173339844,-0.120907187461853
1970-01-01 00:01:33.300,93348.0,-0.7882908992469311,-10.21845293045044,0.7613561674952507
1970-01-01 00:01:33.400,93448.0,1.9231425523757932,-12.54801082611084,-0.0442927330732345
1970-01-01 00:01:33.500,93542.2,-0.4072137971719106,-7.694964170455933,-0.3100491215785344
1970-01-01 00:01:33.600,93648.0,0.2974795699119568,-5.710171222686768,-1.3634978532791138
1970-01-01 00:01:33.700,93759.0,4.271854400634766,-10.253168821334839,-4.289212346076965
1970-01-01 00:01:33.800,93848.0,0.8194155097007751,-7.824251174926758,-2.493561029434204
1970-01-01 00:01:33.900,93949.0,0.3250129222869874,-10.084377527236938,0.8032546788454056
1970-01-01 00:01:34.000,94048.0,2.44747257232666,-10.055646896362305,3.554192304611206
1970-01-01 00:01:34.100,94115.0,0.838569164276123,-9.536105155944824,-0.1352723985910415
1970-01-01 00:01:34.200,94231.0,1.0313023924827576,-9.489418506622314,0.7996633648872375
1970-01-01 00:01:34.300,94347.5,1.9063830971717834,-9.980229377746582,1.0678139328956604
1970-01-01 00:01:34.400,94448.0,3.728370666503906,-11.168951034545898,-0.0825999602675437
1970-01-01 00:01:34.500,94524.33333333333,1.9518729336559775,-10.656591892242432,-0.011970996856689453
1970-01-01 00:01:34.600,94630.0,1.4945803880691528,-12.76109504699707,0.9181763529777528
1970-01-01 00:01:34.700,94748.0,-0.29388824850320816,-8.577227592468262,-0.122104287147522
1970-01-01 00:01:34.800,94848.0,-0.4088099300861358,-5.657498836517334,-1.483207941055298
1970-01-01 00:01:34.900,94936.66666666667,4.377199172973633,-9.112331708272299,-4.808754205703735
1970-01-01 00:01:35.000,95066.5,-0.557250440120697,-9.623493671417236,-4.7153801918029785
1970-01-01 00:01:35.100,95166.0,3.536834478378296,-8.609549522399902,0.3435679376125335
1970-01-01 00:01:35.200,95248.0,2.3110032081604004,-10.515334129333496,2.491166830062866
1970-01-01 00:01:35.300,95348.0,0.7775170207023621,-9.674969355265299,1.086568554242452
1970-01-01 00:01:35.400,95448.0,2.4402899742126465,-9.277531623840332,0.1256955862045288
1970-01-01 00:01:35.500,95543.66666666667,2.493760585784912,-9.995792388916016,1.446496884028117
1970-01-01 00:01:35.600,95648.0,3.7235822677612314,-10.237606048583984,0.2693476974964142
1970-01-01 00:01:35.700,95715.0,1.834557056427002,-11.104307174682615,-1.260547161102295
1970-01-01 00:01:35.800,95849.5,-0.8134300112724304,-10.280702114105225,1.2509703636169434
1970-01-01 00:01:35.900,95954.33333333333,1.3557167053222656,-8.995814005533854,-0.6212953329086304
1970-01-01 00:01:36.000,96048.0,,-5.463568210601807,
1970-01-01 00:01:36.100,96159.33333333333,3.9079357385635376,-8.48864197731018,-3.986345887184143
1970-01-01 00:01:36.200,96248.0,0.536899745464325,-8.983044624328613,-4.212597846984863
1970-01-01 00:01:36.300,96348.0,1.0025719031691551,-10.204087734222412,1.1408370733261108
1970-01-01 00:01:36.400,96448.0,1.614290475845337,-11.204863548278809,2.7688941955566406
1970-01-01 00:01:36.500,96514.5,0.8936358094215393,-9.129091262817385,1.2629413604736328
1970-01-01 00:01:36.600,96624.66666666667,1.1569979190826416,-9.349357604980469,0.8236053884029388
1970-01-01 00:01:36.700,96748.0,1.6382324695587158,-9.785102526346842,1.244984894990921
1970-01-01 00:01:36.800,96848.0,3.022081136703491,-9.725247383117676,1.9333178997039795
1970-01-01 00:01:36.900,96936.66666666667,1.5616181045770645,-10.900002479553223,0.37828387320041656
1970-01-01 00:01:37.000,97049.0,-1.1725603342056274,-11.142614364624023,0.1089361757040023
1970-01-01 00:01:37.100,97170.0,0.40880993008613586,-9.470264911651611,-1.0139444470405579
1970-01-01 00:01:37.200,97248.0,-0.921169102191925,-7.213729858398437,-1.3204022645950315
1970-01-01 00:01:37.300,97336.66666666667,2.8904000520706177,-6.361393690109253,-2.4863784313201904
1970-01-01 00:01:37.400,97448.0,4.2096052169799805,-12.76109504699707,-7.040150165557861
1970-01-01 00:01:37.500,97538.66666666667,-0.43514617532491684,-10.799046993255615,-0.7206547036767006
1970-01-01 00:01:37.600,97648.0,1.932719349861145,-7.479485988616943,1.6388310194015503
1970-01-01 00:01:37.700,97749.0,2.0057424306869507,-9.41001065572103,1.5111403216918309
1970-01-01 00:01:37.800,97849.0,0.4938040971755981,-9.50737476348877,1.499967336654663
1970-01-01 00:01:37.900,97937.0,1.3186066150665283,-9.579200744628906,0.6081272587180138
1970-01-01 00:01:38.000,98048.0,2.5097219944000244,-9.981427192687988,2.2661118507385254
1970-01-01 00:01:38.100,98120.0,3.5799299478530884,-11.354501724243164,0.4560954160988332
1970-01-01 00:01:38.200,98219.5,3.345298290252685,-11.39400577545166,-1.0211269855499268
1970-01-01 00:01:38.300,98319.0,0.261566549539566,-11.470620155334473,1.042674899101257
1970-01-01 00:01:38.400,98418.0,0.0389057770371437,-10.000580787658691,0.0131681095808744
1970-01-01 00:01:38.500,98532.5,1.0540473014116287,-6.63433297475179,-1.5095441937446594
1970-01-01 00:01:38.600,98636.5,2.205658197402954,-5.928043365478516,-2.206256866455078
1970-01-01 00:01:38.700,98730.0,3.93906044960022,-12.957419395446776,-5.397727966308594
1970-01-01 00:01:38.800,98830.66666666667,0.6458359211683272,-9.588778018951416,1.963245451450348
1970-01-01 00:01:38.900,98955.5,1.4083890914916992,-11.865663528442385,3.659537315368652
1970-01-01 00:01:39.000,99053.5,0.3932476341724396,-10.503362655639648,-0.5542576909065247
1970-01-01 00:01:39.100,99154.0,1.2144588232040403,-9.32541561126709,1.1240776777267456
1970-01-01 00:01:39.200,99252.0,1.7387889623641968,-8.887276649475098,0.5925649404525757
1970-01-01 00:01:39.300,99373.0,2.32297420501709,-10.414777755737305,-0.7230488955974579
1970-01-01 00:01:39.400,99467.0,-1.5053542852401731,-8.281543731689453,0.4728548228740692
1970-01-01 00:01:39.500,99558.66666666667,2.0428525805473328,-11.052832126617432,1.2342109978199005
1970-01-01 00:01:39.600,99687.0,2.097919225692749,-9.68933391571045,0.5135562419891357
1970-01-01 00:01:39.700,99786.5,-0.8421604633331299,-6.543353080749512,-0.6835445761680603
1970-01-01 00:01:39.800,99885.0,1.8680758476257324,-9.169792175292969,-2.553416013717652
1970-01-01 00:01:39.900,99974.33333333333,0.9343371589978536,-10.126275777816772,-0.023942112922668457
1970-01-01 00:01:40.000,100083.0,-1.0648212432861328,-11.18092155456543,-2.096123695373535
1970-01-01 00:01:40.100,100129.5,4.1641154289245605,-10.237606525421143,2.7473464012146
1970-01-01 00:01:40.200,100222.5,1.4371196031570435,-8.1139497756958,0.8750807046890259
1970-01-01 00:01:40.300,100322.0,1.0899603366851809,-9.313444137573242,0.6476315855979919
1970-01-01 00:01:40.400,100421.0,-0.0688332989811897,-9.782708168029783,1.387439846992493
1970-01-01 00:01:40.500,100520.0,3.87202262878418,-10.395624160766602,1.0235211849212646
1970-01-01 00:01:40.600,100641.0,1.7208324670791626,-10.832565307617188,1.2689269557595253
1970-01-01 00:01:40.700,100730.0,1.267131209373474,-13.977349281311035,0.8535329103469849
1970-01-01 00:01:40.800,100840.0,-0.19333178550004962,-8.966285228729248,-0.4959987799326579
1970-01-01 00:01:40.900,100956.0,0.2448071241378784,-5.978321552276611,-1.138442873954773
1970-01-01 00:01:41.000,101055.0,4.92307710647583,-10.067618370056152,-4.140771865844727
1970-01-01 00:01:41.100,101168.33333333333,2.7742812633514404,-9.42716932296753,0.9804255366325378
1970-01-01 00:01:41.200,101264.0,2.607884168624878,-10.802638053894045,0.9540894031524658
1970-01-01 00:01:41.300,101374.5,0.8589198775589466,-9.190143585205078,1.1899182200431824
1970-01-01 00:01:41.400,101463.0,1.3820528984069824,-9.428366661071776,0.6117185354232788
1970-01-01 00:01:41.500,101572.0,1.5400702357292175,-10.080786228179932,0.9014169573783875
1970-01-01 00:01:41.600,101690.0,3.4338839054107666,-10.891223907470703,0.9564836025238036
1970-01-01 00:01:41.700,101764.0,0.16220715641975403,-9.230844497680664,1.3443442583084106
1970-01-01 00:01:41.800,101888.0,0.5991489887237549,-13.127408027648926,-1.3443442583084106
1970-01-01 00:01:41.900,101962.5,0.8409633636474608,-7.902062654495239,-0.34476503729820246
1970-01-01 00:01:42.000,102086.5,0.5345055460929871,-5.889736175537109,-1.5646108388900757
1970-01-01 00:01:42.100,102162.5,4.487332582473755,-12.221202850341797,-4.791994571685791
1970-01-01 00:01:42.200,102284.5,0.8194155097007751,-6.878541469573975,1.1312602758407593
1970-01-01 00:01:42.300,102329.0,2.823362350463867,-10.141838073730469,0.8918401598930359
1970-01-01 00:01:42.400,102443.0,1.2695254534482954,-9.20091724395752,0.6404489576816559
1970-01-01 00:01:42.500,102541.5,1.2443863451480865,-9.548076629638672,0.8942343294620514
1970-01-01 00:01:42.600,102641.5,1.6645687818527222,-9.929951667785645,1.234210968017578
1970-01-01 00:01:42.700,102730.0,2.787449359893799,-10.709263801574709,1.217451572418213
1970-01-01 00:01:42.800,102842.0,2.063203364610672,-9.87967300415039,0.6045359149575233
1970-01-01 00:01:42.900,102951.66666666667,0.5177461355924606,-11.218431154886881,0.6584054529666901
1970-01-01 00:01:43.000,103063.0,1.3628993034362793,-9.586383819580078,0.4513070285320282
1970-01-01 00:01:43.100,103170.33333333333,0.6342639662325382,-7.837419271469116,-1.6843208521604538
1970-01-01 00:01:43.200,103272.5,2.9801825284957886,-10.034099102020264,-3.6858736276626587
1970-01-01 00:01:43.300,103348.0,2.143409013748169,-12.011710166931152,-4.655525207519531
1970-01-01 00:01:43.400,103450.0,0.6709750294685364,-8.443551063537598,1.1851298213005066
1970-01-01 00:01:43.500,103548.0,1.9590555429458616,-9.397241592407228,0.9780313968658448
1970-01-01 00:01:43.600,103648.5,0.7547720968723297,-9.423578262329102,0.6200982332229614
1970-01-01 00:01:43.700,103747.5,1.6478092670440674,-10.295066833496094,0.8367735147476196
1970-01-01 00:01:43.800,103848.0,2.193687319755554,-10.260351181030273,0.69790980219841
1970-01-01 00:01:43.900,103948.0,4.075530052185059,-11.329362869262695,0.2669534981250763
1970-01-01 00:01:44.000,104048.0,0.2364273965358734,-10.133458614349363,0.2753332108259201
1970-01-01 00:01:44.100,104148.0,0.9894038438796996,-11.348516464233398,-1.035492181777954
1970-01-01 00:01:44.200,104236.66666666667,0.6649895273149014,-8.962294896443685,-0.7038953006267548
1970-01-01 00:01:44.300,104348.0,1.3437457084655762,-6.821080684661865,-1.693897724151611
1970-01-01 00:01:44.400,104448.0,3.0005332231521606,-10.831368446350098,-3.6786909103393555
1970-01-01 00:01:44.500,104539.0,0.5416881442070007,-9.102754592895508,2.586935043334961
1970-01-01 00:01:44.600,104614.5,0.9654618501663208,-8.971074104309082,0.9229647517204284
1970-01-01 00:01:44.700,104725.5,1.2372037172317505,-9.59596061706543,0.39504328370094294
1970-01-01 00:01:44.800,104848.5,1.5029601454734802,-9.564835548400879,0.7565677464008331
1970-01-01 00:01:44.900,104949.0,1.7076643705368042,-9.897629737854004,0.4034229815006256
1970-01-01 00:01:45.000,105059.33333333333,2.6569653749465942,-10.966640949249268,0.8810662329196931
1970-01-01 00:01:45.100,105148.5,0.1945288926362991,-8.889671325683594,0.0969651713967323
1970-01-01 00:01:45.200,105240.0,2.287061214447021,-8.942343711853027,2.227804660797119
1970-01-01 00:01:45.300,105339.0,1.3581109046936035,-10.47822380065918,0.2717418968677521
1970-01-01 00:01:45.400,105466.33333333333,1.0791864097118378,-8.610347747802734,-1.1911152973771093
1970-01-01 00:01:45.500,105529.0,2.876034736633301,-9.761159896850586,-3.1040825843811035
1970-01-01 00:01:45.600,105648.5,4.055179059505463,-10.702081680297852,-1.3986128270626068
1970-01-01 00:01:45.700,105748.0,-0.8661024570465088,-9.6989107131958,-0.0634463429450988
1970-01-01 00:01:45.800,105859.33333333333,2.102707713842392,-9.361328601837158,0.532709889113903
1970-01-01 00:01:45.900,105973.0,1.6645687818527222,-9.351752281188965,0.0634463429450988
1970-01-01 00:01:46.000,106059.0,0.5452794432640076,-10.418767611185709,0.820014089345932
1970-01-01 00:01:46.100,106171.5,2.3098061084747314,-10.498574256896973,0.750582218170166
1970-01-01 00:01:46.200,106247.5,2.8401217460632324,-11.399991512298584,-0.33518823981285095
1970-01-01 00:01:46.300,106348.0,1.288679122924805,-7.261613845825195,0.8918401598930359
1970-01-01 00:01:46.400,106414.0,1.8848352432250977,-12.25352382659912,2.864662408828736
1970-01-01 00:01:46.500,106509.0,1.5400702953338623,-10.864887237548828,0.4967968463897705
1970-01-01 00:01:46.600,106607.5,1.0516531467437744,-8.690951824188232,0.0011971008498221
1970-01-01 00:01:46.700,106727.5,3.91631543636322,-8.201338052749634,-2.128445267677307
1970-01-01 00:01:46.800,106815.0,3.256712913513184,-10.711658477783203,-1.4688427448272705
1970-01-01 00:01:46.900,106927.25,0.21487975120544434,-10.055646896362305,0.052672386169433594
1970-01-01 00:01:47.000,107044.0,1.8680758476257324,-9.114726066589355,0.767341673374176
1970-01-01 00:01:47.100,107143.0,0.6518214344978333,-10.225635528564451,0.3124433159828186
1970-01-01 00:01:47.200,107242.5,0.1131260320544242,-9.651026725769045,0.7457938194274902
1970-01-01 00:01:47.300,107342.0,1.063624143600464,-10.050858497619627,0.9014169573783876
1970-01-01 00:01:47.400,107468.0,3.541622817516327,-10.86009931564331,1.4221557974815369
1970-01-01 00:01:47.500,107550.0,1.2000936269760132,-12.617443084716797,1.437718152999878
1970-01-01 00:01:47.600,107660.0,0.46148237586021423,-10.189722537994385,0.6524199843406677
1970-01-01 00:01:47.700,107778.5,-0.9187749028205872,-7.287950038909912,-0.0059855040162801
1970-01-01 00:01:47.800,107877.0,2.672527551651001,-7.692570209503174,-3.008314371109009
1970-01-01 00:01:47.900,107976.5,4.17608642578125,-9.883264541625977,-3.33392596244812
1970-01-01 00:01:48.000,108075.5,-4.0863037109375,-8.403648376464844,0.851138710975647
1970-01-01 00:01:48.100,108174.5,2.227206230163574,-8.96149730682373,0.9684545993804932
1970-01-01 00:01:48.200,108214.5,-0.0855927094817161,-9.691728591918944,1.0642226934432983
1970-01-01 00:01:48.300,108348.5,1.6801310181617737,-10.018537044525146,-0.023942019790410995
1970-01-01 00:01:48.400,108448.5,2.7706899642944336,-10.070810317993164,1.397016704082489
1970-01-01 00:01:48.500,108540.5,2.4426841735839844,-11.456254959106444,-1.7262194752693176
1970-01-01 00:01:48.600,108662.66666666667,-0.8696937561035156,-10.758345127105713,1.017535716295242
1970-01-01 00:01:48.700,108739.5,0.9271546006202698,-9.768342971801758,-0.6667851805686951
1970-01-01 00:01:48.800,108828.66666666667,-0.12749123573303223,-7.627926588058472,0.0071826055645942515
1970-01-01 00:01:48.900,108940.0,2.236783027648926,-6.97430944442749,-3.0585925579071045
1970-01-01 00:01:49.000,109027.0,6.577470779418945,-12.56955909729004,-5.929240703582764
1970-01-01 00:01:49.100,109126.0,0.0843956097960472,-5.092466831207275,3.290830135345459
1970-01-01 00:01:49.200,109257.33333333333,1.402403637766838,-9.481038570404053,0.9672574698925018
1970-01-01 00:01:49.300,109340.0,0.1370680481195449,-9.153033256530762,0.6548141837120056
1970-01-01 00:01:49.400,109448.5,2.188898921012878,-10.204087734222412,0.05626371502876282
1970-01-01 00:01:49.500,109533.5,2.035670042037964,-10.61589002609253,1.2270283699035645
1970-01-01 00:01:49.600,109640.0,2.117072880268097,-10.257957458496094,-0.4034229815006256
1970-01-01 00:01:49.700,109760.0,0.4195838570594787,-8.650250434875488,1.4664485454559326
1970-01-01 00:01:49.800,109860.0,-0.1406593471765518,-10.87446403503418,0.0658405497670173
1970-01-01 00:01:49.900,109940.5,-0.4183867573738098,-6.86058497428894,0.1256955862045288
1970-01-01 00:01:50.000,110028.66666666667,3.0867244601249695,-7.377732515335083,-3.7469255924224854
1970-01-01 00:01:50.100,110157.5,1.4514847993850708,-13.026851654052734,-1.0893619060516357
1970-01-01 00:01:50.200,110228.66666666667,-0.3621230125427246,-10.01374864578247,2.3235727548599243
1970-01-01 00:01:50.300,110340.0,2.143409013748169,-9.56483554840088,1.2270283699035645
1970-01-01 00:01:50.400,110440.0,0.9738415405154228,-9.71088171005249,0.8954314291477203
1970-01-01 00:01:50.500,110525.0,1.9446903467178345,-9.454702377319336,0.7026981711387634
1970-01-01 00:01:50.600,110635.33333333333,2.867655038833618,-10.093954086303711,0.5398924797773361
1970-01-01 00:01:50.700,110740.0,1.27191960811615,-11.219228744506836,-1.7872716188430786
1970-01-01 00:01:50.800,110834.66666666667,-0.18375492095947266,-10.222443262736002,1.2138602137565613
1970-01-01 00:01:50.900,110940.0,-0.2148796021938324,-10.381258964538574,-0.4656722247600555
1970-01-01 00:01:51.000,111039.5,-0.34177229925990105,-8.177396059036255,-0.11372458375990385
1970-01-01 00:01:51.100,111140.0,2.3277626037597656,-4.733336925506592,-2.251746654510498
1970-01-01 00:01:51.200,111240.0,3.1381999403238297,-11.39280891418457,-6.155492544174194
1970-01-01 00:01:51.300,111340.0,-0.3417722880840301,-8.355764389038086,2.2661118507385254
1970-01-01 00:01:51.400,111450.0,0.9594763219356537,-9.671378135681152,1.8064252138137817
1970-01-01 00:01:51.500,111528.0,1.5460557341575623,-9.495404243469238,1.5059528946876526
1970-01-01 00:01:51.600,111650.5,0.8900445401668549,-9.491413752237955,1.5861586332321167
1970-01-01 00:01:51.700,111741.0,2.23199462890625,-9.63187313079834,2.2852654457092285
1970-01-01 00:01:51.800,111840.5,3.4542346000671387,-10.600327968597412,0.8822633512318133
1970-01-01 00:01:51.900,111962.0,1.786673069000244,-10.984597206115724,0.6835445761680603
1970-01-01 00:01:52.000,112061.0,-2.3122003078460693,-12.48815631866455,1.114500880241394
1970-01-01 00:01:52.100,112160.0,1.228824019432068,-11.77947235107422,-0.0059855040162801
1970-01-01 00:01:52.200,112251.0,1.1809400022029877,-6.038176774978638,-0.31842882558703417
1970-01-01 00:01:52.300,112358.5,3.04602313041687,-4.687847137451172,-5.155913352966309
1970-01-01 00:01:52.400,112452.0,-0.3022679537534714,-9.928754329681396,-4.3418848514556885
1970-01-01 00:01:52.500,112548.0,-0.0712274983525276,-8.882488250732422,1.2868833541870115
1970-01-01 00:01:52.600,112651.0,1.9223443965117137,-10.46625280380249,1.9835960566997528
1970-01-01 00:01:52.700,112794.5,1.204882025718689,-9.038111686706545,0.547075092792511
1970-01-01 00:01:52.800,112893.5,1.6980875730514526,-9.852139949798584,-0.5327098965644836
1970-01-01 00:01:52.900,112940.0,3.639785051345825,-9.509769439697266,1.0881646871566772
1970-01-01 00:01:53.000,113039.5,3.1884780824184418,-11.64300298690796,-0.7876923680305482
1970-01-01 00:01:53.100,113140.0,1.149815320968628,-11.729193687438965,2.021903276443481
1970-01-01 00:01:53.200,113231.0,1.5592238903045654,-13.04361057281494,-0.2094926536083221
1970-01-01 00:01:53.300,113330.5,0.4818331003189087,-8.729259490966797,0.3722983598709106
1970-01-01 00:01:53.400,113459.66666666667,2.264316350221634,-7.643488883972168,-3.072957843542099
1970-01-01 00:01:53.500,113521.33333333333,2.0715830326080322,-12.399570941925049,-4.368221163749695
1970-01-01 00:01:53.600,113627.0,1.1139023303985596,-13.36203956604004,-1.337161660194397
1970-01-01 00:01:53.700,113733.66666666667,1.6693571209907532,-8.732850790023804,1.2413935661315918
1970-01-01 00:01:53.800,113847.0,0.8146271109580994,-9.368511199951172,-0.0083797061815857
1970-01-01 00:01:53.900,113944.5,1.2503718733787537,-9.435548782348633,0.45010992139577866
1970-01-01 00:01:54.000,114044.5,1.058835744857788,-10.159794807434082,0.1663970202207565
1970-01-01 00:01:54.100,114144.5,3.3165679574012756,-10.445902347564697,0.9612719714641571
1970-01-01 00:01:54.200,114245.5,2.3756465911865234,-11.044452667236328,-2.191891670227051
1970-01-01 00:01:54.300,114333.66666666667,1.058835692703724,-11.354501724243164,0.620098203420639
1970-01-01 00:01:54.400,114447.0,0.352546215057373,-10.450690269470217,0.2454056739807129
1970-01-01 00:01:54.500,114537.5,-0.4016273270050685,-6.113194942474365,-0.7872933149337769
1970-01-01 00:01:54.600,114645.0,1.468244194984436,-6.387730121612549,-2.5462334156036377
1970-01-01 00:01:54.700,114744.5,2.7228058576583862,-12.488155841827393,-2.835931897163391
1970-01-01 00:01:54.800,114844.5,-0.0017956512747332,-10.836156845092772,1.5933412313461304
1970-01-01 00:01:54.900,114947.5,2.647388458251953,-9.051279544830322,1.6699556708335876
1970-01-01 00:01:55.000,115045.0,0.7811083197593689,-9.62947940826416,0.0347159244120121
1970-01-01 00:01:55.100,115139.66666666667,1.5400702953338623,-9.427568117777506,0.6117185354232788
1970-01-01 00:01:55.200,115244.0,1.9015947580337524,-10.587160110473633,0.9253589510917664
1970-01-01 00:01:55.300,115345.0,3.8013938665390015,-11.177330493927002,0.9385270327329636
1970-01-01 00:01:55.400,115444.5,-0.9355342984199524,-8.705317497253418,0.6572083830833435
1970-01-01 00:01:55.500,115544.5,1.7723078429698944,-11.597512722015383,1.0103531703352928
1970-01-01 00:01:55.600,115645.0,0.596754789352417,-9.524134635925291,0.1280897855758667
1970-01-01 00:01:55.700,115754.0,0.49380408227443695,-5.949591159820557,-1.0091559835709631
1970-01-01 00:01:55.800,115844.5,2.5288755893707275,-9.59596037864685,-4.339490413665772
1970-01-01 00:01:55.900,115944.33333333333,2.5791537761688232,-14.550760746002197,-2.443282902240753
1970-01-01 00:01:56.000,116044.5,1.0109516382217407,-8.665812969207764,1.0546458959579468
1970-01-01 00:01:56.100,116133.66666666667,0.6877343952655792,-8.407238960266113,1.7501614689826965
1970-01-01 00:01:56.200,116246.5,-0.5859808921813965,-9.761160373687744,0.2621650993824005
1970-01-01 00:01:56.300,116333.66666666667,1.4933832883834839,-9.68813705444336,0.9580796758333842
1970-01-01 00:01:56.400,116463.0,1.6047136783599854,-9.495404243469238,0.6189011335372925
1970-01-01 00:01:56.500,116548.0,3.755504846572876,-10.878454208374023,-0.08339802424112956
1970-01-01 00:01:56.600,116661.0,0.9415197968482972,-9.792284965515137,-0.2789244949817657
1970-01-01 00:01:56.700,116744.5,1.7375918626785278,-13.050793647766113,-0.23343466967344284
1970-01-01 00:01:56.800,116845.0,-0.1813607811927795,-10.314221382141112,0.1879448294639587
1970-01-01 00:01:56.900,116970.0,0.1083376333117485,-5.969941854476929,-0.7206547111272812
1970-01-01 00:01:57.000,117045.0,5.825691223144531,-12.140996932983398,-5.519832134246826
1970-01-01 00:01:57.100,117162.8,2.263119101524353,-11.78904914855957,-4.037821173667908
1970-01-01 00:01:57.200,117245.5,-1.9913772344589236,-7.220912456512451,2.0123265385627747
1970-01-01 00:01:57.300,117333.66666666667,2.522890031337738,-10.162588437398275,2.251746743917465
1970-01-01 00:01:57.400,117445.5,-0.1526303589344024,-9.751583099365234,0.4345476031303406
1970-01-01 00:01:57.500,117534.0,2.689286947250366,-9.258378028869627,0.5135562419891357
1970-01-01 00:01:57.600,117633.0,1.1139023303985596,-9.780313491821287,0.9804255962371826
1970-01-01 00:01:57.700,117755.5,3.333327293395996,-11.553220748901367,0.37349546700716024
1970-01-01 00:01:57.800,117845.0,1.1953052282333374,-9.86889934539795,-0.9564836025238036
1970-01-01 00:01:57.900,117946.33333333333,1.1713631749153137,-12.148179372151693,1.710657149553299
1970-01-01 00:01:58.000,118047.0,1.726817965507507,-11.197681427001951,0.4776432514190674
1970-01-01 00:01:58.100,118145.0,0.0999579187482595,-6.235698223114014,-0.7050924189388752
1970-01-01 00:01:58.200,118267.5,1.975814938545227,-6.9036805629730225,-2.9676129817962646
1970-01-01 00:01:58.300,118366.5,3.1034839153289795,-10.560823917388916,-4.155137062072754
1970-01-01 00:01:58.400,118466.0,-0.3633201122283935,-6.672640323638916,-0.1089361757040023
1970-01-01 00:01:58.500,118541.66666666667,1.9383057753245037,-9.780314127604166,0.9349357883135477
1970-01-01 00:01:58.600,118643.0,0.8984242081642151,-9.315838813781738,1.2964602708816528
1970-01-01 00:01:58.700,118708.0,0.9463081955909728,-9.727641105651855,0.5135562419891357
1970-01-01 00:01:58.800,118803.0,1.6382324695587158,-9.404424667358398,0.2861070930957794
1970-01-01 00:01:58.900,118902.5,1.0564415454864502,-9.366117477416992,0.3507505357265472
1970-01-01 00:01:59.000,119001.0,-0.0137666594237089,-10.201693534851074,1.2557587623596191
1970-01-01 00:01:59.100,119149.5,5.464166641235352,-10.170568466186523,0.547075092792511
1970-01-01 00:01:59.200,119221.0,1.342548593878746,-12.502521514892578,0.0694318413734436
1970-01-01 00:01:59.300,119353.5,2.5288755893707275,-10.775104999542236,1.0809820592403412
1970-01-01 00:01:59.400,119442.0,-0.2747346460819244,-7.38132381439209,-0.5039794445037842
1970-01-01 00:01:59.500,119529.0,-0.3992331326007843,-6.356605529785156,-1.7848774194717407
1970-01-01 00:01:59.600,119628.5,4.015674710273743,-8.893262386322021,-3.014299988746643
1970-01-01 00:01:59.700,119735.0,0.4722562730312347,-11.903970718383787,1.4185645580291748
1970-01-01 00:01:59.800,119834.0,1.7292121648788452,-7.541735172271728,3.3315317630767822
1970-01-01 00:01:59.900,119947.33333333333,1.325789213180542,-9.091980934143066,0.12569558620452878
1970-01-01 00:02:00.000,120072.0,1.0181342363357544,-9.421183586120604,-0.4058171808719635
1970-01-01 00:02:00.100,120171.0,0.4124012291431427,-9.770736694335938,0.7314286231994629
1970-01-01 00:02:00.200,120270.0,1.8082208633422847,-9.454702377319336,-0.4944026470184326
1970-01-01 00:02:00.300,120369.5,5.761047840118408,-11.356895446777344,1.6101006269454956
1970-01-01 00:02:00.400,120468.5,-1.7974469661712646,-9.682151794433594,0.6428431272506714
1970-01-01 00:02:00.500,120530.66666666667,1.3022461930910747,-12.350489616394043,0.2693476900458336
1970-01-01 00:02:00.600,120667.5,0.0412999801337718,-10.69489860534668,1.0067617893218994
1970-01-01 00:02:00.700,120708.0,-0.2747346460819244,-6.761225700378418,-0.2908954918384552
1970-01-01 00:02:00.800,120806.0,-0.1502361595630645,-5.367800235748291,-1.5286977291107178
1970-01-01 00:02:00.900,120905.5,5.1816511154174805,-11.065999984741213,-5.096058368682861
1970-01-01 00:02:01.000,121004.5,0.7092822790145874,-12.375628471374512,-2.5558102130889893
1970-01-01 00:02:01.100,121104.0,0.6350619792938232,-5.980715751647949,1.191115379333496
1970-01-01 00:02:01.200,121215.66666666667,2.0799627006053925,-8.887276649475098,1.4317325800657272
1970-01-01 00:02:01.300,121308.5,1.10193133354187,-9.388862133026123,0.8343793153762817
1970-01-01 00:02:01.400,121421.5,0.9870096445083618,-9.354146003723145,0.9145850539207458
1970-01-01 00:02:01.500,121540.0,2.5264813899993896,-9.77791976928711,2.3786394596099854
1970-01-01 00:02:01.600,121639.0,2.40198278427124,-13.608642578125,-1.5095441341400146
1970-01-01 00:02:01.700,121750.66666666667,-0.0017956495285033972,-10.256760120391846,0.13048399984836576
1970-01-01 00:02:01.800,121842.0,-0.7942764163017273,-9.974244117736816,-0.0802057534456253
1970-01-01 00:02:01.900,121955.5,0.5931634865701199,-6.362591028213501,-1.5538369417190552
1970-01-01 00:02:02.000,122042.0,1.83695125579834,-6.004657745361328,-2.5438392162323
1970-01-01 00:02:02.100,122161.0,2.0189104825258255,-12.994529724121094,-2.7856537252664566
1970-01-01 00:02:02.200,122273.5,0.761954665184021,-8.367734909057617,0.7577648162841797
1970-01-01 00:02:02.300,122341.5,2.751536250114441,-10.730812072753906,2.5605987310409546
1970-01-01 00:02:02.400,122471.5,0.2711433470249176,-10.07240629196167,0.6787561774253845
1970-01-01 00:02:02.500,122541.66666666667,1.1490173141161601,-9.478644371032715,0.8383696476618449
1970-01-01 00:02:02.600,122670.0,2.0236990451812744,-9.768342971801758,0.5207388401031494
1970-01-01 00:02:02.700,122769.0,2.423530578613281,-10.38604736328125,0.9181763529777528
1970-01-01 00:02:02.800,122868.0,0.4124012291431427,-10.89601230621338,-1.6627731323242188
1970-01-01 00:02:02.900,122909.5,1.2120646238327026,-12.45463752746582,1.1049240827560425
1970-01-01 00:02:03.000,123024.5,1.3473370373249054,-10.885237693786621,-0.5758054815232754
1970-01-01 00:02:03.100,123108.5,0.2424129247665405,-8.05888295173645,-0.5638344883918762
1970-01-01 00:02:03.200,123223.5,2.5133132040500645,-8.329427719116211,-2.9029696583747864
1970-01-01 00:02:03.300,123309.0,5.950189590454102,-14.393940925598145,-5.594052314758301
1970-01-01 00:02:03.400,123423.0,0.23403319716453536,-9.477447509765625,1.1085153818130493
1970-01-01 00:02:03.500,123532.0,0.8704918548464775,-8.397263209025065,0.687534878651301
1970-01-01 00:02:03.600,123642.0,0.3309983909130096,-9.713275909423828,0.2908954918384552
1970-01-01 00:02:03.700,123756.5,0.7188590764999392,-9.540894031524658,0.8750807195901871
1970-01-01 00:02:03.800,123836.0,0.436343252658844,-9.651026725769045,2.175132274627685
1970-01-01 00:02:03.900,123943.5,1.5388731360435486,-10.299257040023804,2.025494635105133
1970-01-01 00:02:04.000,124035.5,1.5089455842971802,-11.896788597106934,1.8351556062698364
1970-01-01 00:02:04.100,124134.66666666667,1.5544354990124702,-9.738415241241455,0.6165069211274385
1970-01-01 00:02:04.200,124256.0,2.89997673034668,-10.512939453125,-0.3746925592422485
1970-01-01 00:02:04.300,124347.0,1.932719389597575,-11.501744747161865,1.4341267943382263
1970-01-01 00:02:04.400,124454.0,-1.0193313360214231,-9.141061782836914,-0.2573766708374023
1970-01-01 00:02:04.500,124532.0,4.653330564498901,-5.962360223134358,-2.073777755101522
1970-01-01 00:02:04.600,124653.0,2.6773159503936768,-8.640673637390137,-2.981978178024292
1970-01-01 00:02:04.700,124736.0,0.5440822839736938,-11.06719732284546,1.438915193080902
1970-01-01 00:02:04.800,124835.5,1.2838906049728394,-8.429984092712402,-0.5351040959358215
1970-01-01 00:02:04.900,124946.5,1.6274585723876953,-10.098742961883545,-0.34476504474878306
1970-01-01 00:02:05.000,125035.0,1.082777738571167,-9.05487060546875,0.3004723191261291
1970-01-01 00:02:05.100,125160.66666666667,1.1833342015743256,-9.312247276306152,-0.02753331884741785
1970-01-01 00:02:05.200,125235.0,1.6454150676727295,-10.649409294128418,0.5614402890205383
1970-01-01 00:02:05.300,125344.5,3.989338517189026,-10.675745487213135,-0.0239420086145401
1970-01-01 00:02:05.400,125436.0,1.0971429347991943,-9.859322547912598,3.6092591285705566
1970-01-01 00:02:05.500,125505.0,4.015674591064453,-12.306197166442873,4.681861400604248
1970-01-01 00:02:05.600,125626.0,0.808641642332077,-9.384073257446289,0.6739677712321281
1970-01-01 00:02:05.700,125724.0,0.0436941795051097,-8.197746276855469,-0.1424549967050552
1970-01-01 00:02:05.800,125823.0,-0.1454477459192276,-7.089231014251709,-2.297236442565918
1970-01-01 00:02:05.900,125945.0,3.224391132593155,-13.265074491500854,-0.45848965644836426
1970-01-01 00:02:06.000,126035.5,-2.470217704772949,-10.404003143310547,-4.274847030639648
1970-01-01 00:02:06.100,126144.5,0.5141547918319702,-7.095216751098633,1.1396400332450867
1970-01-01 00:02:06.200,126259.0,-0.5309142470359802,-10.53688144683838,-0.5422866940498352
1970-01-01 00:02:06.300,126358.0,1.5568296909332275,-9.481039047241213,1.212663173675537
1970-01-01 00:02:06.400,126457.5,1.2623428106307983,-9.495404243469238,0.52552729845047
1970-01-01 00:02:06.500,126558.0,2.5899276435375214,-11.422736167907715,0.8930372297763824
1970-01-01 00:02:06.600,126655.0,3.4099416732788086,-11.422736167907717,-1.533486247062683
1970-01-01 00:02:06.700,126735.5,3.6278141736984253,-11.101913452148438,2.5857378244400024
1970-01-01 00:02:06.800,126853.0,1.7363947629928589,-10.984597206115724,1.2485761642456057
1970-01-01 00:02:06.900,126962.33333333333,-0.27633078893025714,-7.740454196929932,0.27772738784551626
1970-01-01 00:02:07.000,127092.0,1.3533225059509275,-6.196194171905518,-2.3930046558380127
1970-01-01 00:02:07.100,127191.0,6.524798393249512,-10.35252857208252,-3.0657753944396973
1970-01-01 00:02:07.200,127235.0,-1.4622586965560913,-10.213664054870604,0.4967968463897705
1970-01-01 00:02:07.300,127360.33333333333,1.3365630805492401,-9.13387942314148,1.9620482921600344
1970-01-01 00:02:07.400,127437.0,-0.7272387742996216,-9.971850395202637,0.4991910457611084
1970-01-01 00:02:07.500,127521.0,1.4754267632961273,-9.318233013153076,0.7685387432575226
1970-01-01 00:02:07.600,127627.0,1.6238672733306885,-9.557653427124023,0.4800374507904053
1970-01-01 00:02:07.700,127747.5,3.363254964351654,-11.753934224446615,1.39581960439682
1970-01-01 00:02:07.800,127835.5,2.4594438076019287,-11.378443717956543,-2.1296424865722656
1970-01-01 00:02:07.900,127946.5,0.6111199855804443,-10.470442771911621,0.5722142308950424
1970-01-01 00:02:08.000,128035.0,0.6901286244392395,-10.66137981414795,0.5015852451324463
1970-01-01 00:02:08.100,128146.0,0.16699555516242984,-7.593210697174072,-0.35673604905605316
1970-01-01 00:02:08.200,128235.5,0.1610100716352462,-5.884947776794434,-2.8407204151153564
1970-01-01 00:02:08.300,128337.33333333333,3.4015620350837708,-10.280702114105225,-4.57771372795105
1970-01-01 00:02:08.400,128461.5,0.4124012291431427,-11.154585838317871,2.653972625732422
1970-01-01 00:02:08.500,128533.66666666667,2.8417178789774575,-10.110713640848795,2.1456037759780884
1970-01-01 00:02:08.600,128659.0,-0.2819172441959381,-8.904036521911621,0.6476315855979919
1970-01-01 00:02:08.700,128735.5,1.7076643705368042,-9.586383819580078,0.669179379940033
1970-01-01 00:02:08.800,128858.0,0.2663549482822418,-9.41639518737793,0.2980781197547912
1970-01-01 00:02:08.900,128945.75,2.706046462059021,-10.653399467468262,1.211067020893097
1970-01-01 00:02:09.000,129046.5,1.592742681503296,-11.202469825744627,-2.103306293487549
1970-01-01 00:02:09.100,129158.33333333333,1.5831658244132996,-10.244789123535156,1.906981647014618
1970-01-01 00:02:09.200,129247.0,1.346139907836914,-10.321403503417969,1.1408370733261108
1970-01-01 00:02:09.300,129314.0,1.8225860595703125,-9.770736694335938,0.5111620426177979
1970-01-01 00:02:09.400,129412.0,-1.0408791303634644,-6.610390663146973,-0.3435679376125335
1970-01-01 00:02:09.500,129545.5,3.0316579341888428,-7.929595947265625,-4.2760443687438965
1970-01-01 00:02:09.600,129647.0,-0.2579752206802368,-14.245500564575195,2.29484224319458
1970-01-01 00:02:09.700,129747.0,0.8696937523782253,-9.880870819091797,0.6907272338867188
1970-01-01 00:02:09.800,129848.5,2.390011787414551,-9.03212594985962,1.5646108388900757
1970-01-01 00:02:09.900,129949.5,0.26156651973724376,-9.70729112625122,0.61890116520226
1970-01-01 00:02:10.000,130047.0,0.4507084786891937,-9.138668060302734,0.6380547285079956
1970-01-01 00:02:10.100,130158.33333333333,1.6573861241340637,-9.965465545654297,1.3168109059333801
1970-01-01 00:02:10.200,130247.0,4.425083160400391,-11.307814598083496,0.7314286231994629
1970-01-01 00:02:10.300,130358.33333333333,-0.5692214518785477,-9.900023937225342,0.9050082601606846
1970-01-01 00:02:10.400,130447.0,2.16495680809021,-13.93664836883545,-1.0642226934432983
1970-01-01 00:02:10.500,130533.5,-0.06404489418491724,-8.820238828659058,-0.24899698048830035
1970-01-01 00:02:10.600,130642.5,-0.2244564145803451,-5.938817501068115,-0.851138710975647
1970-01-01 00:02:10.700,130758.33333333333,3.444657802581787,-10.174160242080688,-3.958014488220215
1970-01-01 00:02:10.800,130847.0,0.1921346932649612,-12.169727325439451,-1.4305355548858645
1970-01-01 00:02:10.900,130947.0,0.23044191300868994,-8.505401372909546,0.5315127670764923
1970-01-01 00:02:11.000,131047.0,3.144185304641724,-8.712499618530273,1.5382746458053589
1970-01-01 00:02:11.100,131135.66666666666,0.4255693443119526,-9.718064785003662,0.403422985225916
1970-01-01 00:02:11.200,131247.0,0.5225345492362976,-9.162610054016112,0.2238578647375106
1970-01-01 00:02:11.300,131358.33333333334,1.0229226946830747,-10.383652687072754,0.8200140595436096
1970-01-01 00:02:11.400,131447.0,4.216787815093994,-9.423578262329102,1.042674899101257
1970-01-01 00:02:11.500,131547.33333333334,0.39404571056365967,-10.095550537109375,0.5414886172705641
1970-01-01 00:02:11.600,131647.0,1.3605051040649414,-13.330915451049805,1.483207941055298
1970-01-01 00:02:11.700,131737.0,1.067215385613963,-10.31023089090983,-0.824802502989769
1970-01-01 00:02:11.800,131849.5,0.536899745464325,-6.6630635261535645,-0.5458779782056808
1970-01-01 00:02:11.900,131915.0,0.5512649416923523,-5.765237808227539,-1.3658920526504517
1970-01-01 00:02:12.000,132028.0,3.093907117843628,-8.513781388600668,-4.072537064552307
1970-01-01 00:02:12.100,132147.0,0.8373720720410347,-9.66419506072998,-2.2792800068855286
1970-01-01 00:02:12.200,132247.0,0.0628477931022644,-7.759607791900635,2.0171148777008057
1970-01-01 00:02:12.300,132347.0,1.4012065827846527,-10.073603630065918,1.0881646871566772
1970-01-01 00:02:12.400,132447.0,0.9702502489089966,-9.342175483703612,0.9397241473197936
1970-01-01 00:02:12.500,132565.66666666666,0.8792705833911896,-9.736021518707275,0.8954314291477204
1970-01-01 00:02:12.600,132647.5,1.5161281824111938,-10.524910926818848,1.7513585090637207
1970-01-01 00:02:12.700,132761.5,2.00454543530941,-10.290278911590576,0.330399826169014
1970-01-01 00:02:12.800,132847.0,0.0005985504249110818,-7.893682956695557,0.9780313968658448
1970-01-01 00:02:12.900,132947.5,0.8409633338451385,-12.29661989212036,-0.4453215152025223
1970-01-01 00:02:13.000,133047.0,0.2232593148946762,-9.627084732055664,0.0490811355412006
1970-01-01 00:02:13.100,133158.33333333334,0.5213374122977257,-6.287173748016357,-1.979605793952942
1970-01-01 00:02:13.200,133278.5,4.805761337280273,-12.018892288208008,-5.026626586914063
1970-01-01 00:02:13.300,133378.0,0.7236474752426147,-12.66053867340088,-0.628477931022644
1970-01-01 00:02:13.400,133477.5,-0.6027402877807617,-7.845798969268799,0.5446808934211731
1970-01-01 00:02:13.500,133520.0,1.420360118150711,-9.253589630126953,0.5961562171578407
1970-01-01 00:02:13.600,133616.0,0.345363587141037,-9.344569206237791,0.0778115540742874
1970-01-01 00:02:13.700,133768.0,0.9068038463592529,-9.540894031524658,1.626860111951828
1970-01-01 00:02:13.800,133847.0,0.979827046394348,-10.826580047607422,0.99479079246521
1970-01-01 00:02:13.900,133913.5,1.6525976657867432,-9.520543098449707,0.4297592043876648
1970-01-01 00:02:14.000,134039.5,2.6007016599178314,-10.121487617492676,-0.9349357038736343
1970-01-01 00:02:14.100,134150.5,-0.406415730714798,-7.223306655883789,1.2102689743041992
1970-01-01 00:02:14.200,134264.33333333334,1.4933832883834839,-12.190078258514404,-0.647631585597992
1970-01-01 00:02:14.300,134353.0,0.960673451423645,-8.585607528686523,-0.7912836670875549
1970-01-01 00:02:14.400,134448.0,0.7044938206672668,-5.901707172393799,-0.7338228225708008
1970-01-01 00:02:14.500,134541.33333333334,4.044405102729797,-9.780313968658447,-3.0705636739730835
1970-01-01 00:02:14.600,134653.0,1.1115081310272217,-10.113108158111572,-1.2246341705322268
1970-01-01 00:02:14.700,134753.0,0.9415197968482972,-8.544905662536621,0.0634463429450988
1970-01-01 00:02:14.800,134865.66666666666,1.971026599407196,-9.967061996459961,0.758961945772171
1970-01-01 00:02:14.900,134955.0,1.2000936269760132,-9.150638580322266,0.0754173547029495
1970-01-01 00:02:15.000,135065.0,0.7667430639266968,-9.376890659332275,0.23104046098887918
1970-01-01 00:02:15.100,135153.5,1.2647370100021362,-10.340557098388672,0.970848798751831
1970-01-01 00:02:15.200,135253.5,2.6078842878341675,-10.486603260040283,1.1947066187858582
1970-01-01 00:02:15.300,135353.0,0.6997054219245911,-10.826580047607422,-1.157596468925476
1970-01-01 00:02:15.400,135441.66666666666,1.3736732378602028,-10.341753959655762,0.5578490234911442
1970-01-01 00:02:15.500,135550.0,1.2743138074874878,-11.18092155456543,0.4297592043876648
1970-01-01 00:02:15.600,135653.5,0.3824737370014192,-8.362946510314941,0.06224924325942993
1970-01-01 00:02:15.700,135753.0,0.4291606545448303,-6.399701118469238,-2.852691411972046
1970-01-01 00:02:15.800,135864.33333333334,3.8708255290985107,-9.817424297332764,-4.135983347892761
1970-01-01 00:02:15.900,135953.5,-1.591545581817627,-11.410765647888184,-0.4441244006156921
1970-01-01 00:02:16.000,136064.33333333334,1.6861165563265483,-9.02015495300293,2.126051127910614
1970-01-01 00:02:16.100,136153.0,0.6661866307258606,-9.35893440246582,-0.2238578647375106
1970-01-01 00:02:16.200,136253.0,0.6027402579784393,-9.451111316680908,0.4453215189278127
1970-01-01 00:02:16.300,136353.0,-0.3274070918560028,-9.959878921508787,0.7529764175415039
1970-01-01 00:02:16.400,136453.0,2.4307132959365845,-9.59835433959961,0.8547299802303314
1970-01-01 00:02:16.500,136541.5,3.01250433921814,-12.746729850769045,1.4856021404266355
1970-01-01 00:02:16.600,136653.0,0.3393780849874019,-9.299079259236654,0.6033387780189514
1970-01-01 00:02:16.700,136754.0,2.4881742000579834,-13.57751750946045,1.5191209316253662
1970-01-01 00:02:16.800,136854.5,0.3214215785264969,-10.498574256896973,0.28012160211801534
1970-01-01 00:02:16.900,136953.5,0.2783259451389313,-6.852205276489258,-0.788889467716217
1970-01-01 00:02:17.000,137066.0,2.457049384713173,-9.370905637741089,-3.2896331548690796
1970-01-01 00:02:17.100,137154.0,2.732382774353028,-9.950302124023438,-3.779247283935547
1970-01-01 00:02:17.200,137264.33333333334,-0.22804772853851318,-10.80742621421814,0.6799532696604729
1970-01-01 00:02:17.300,137353.0,2.272696018218994,-12.648567199707031,3.159149169921875
1970-01-01 00:02:17.400,137453.5,0.8242039401084185,-9.19014310836792,0.3555389493703842
1970-01-01 00:02:17.500,137532.5,1.1761516332626345,-9.418789863586426,0.9062053561210632
1970-01-01 00:02:17.600,137664.33333333334,1.3628993332386017,-9.562441349029541,0.7386112213134766
1970-01-01 00:02:17.700,137780.0,2.806602954864502,-10.067618370056152,1.7920600175857544
1970-01-01 00:02:17.800,137853.0,0.11432313919067386,-10.565611839294434,-0.7996633946895599
1970-01-01 00:02:17.900,137953.0,-0.5764040350914001,-10.18493366241455,0.5303156971931458
1970-01-01 00:02:18.000,138053.0,0.9750386271625758,-10.984597206115723,-0.37110125273466105
1970-01-01 00:02:18.100,138153.5,0.2567781209945678,-8.015787124633789,-1.016338586807251
1970-01-01 00:02:18.200,138220.0,0.4339490532875061,-6.311115741729736,-0.6811503767967224
1970-01-01 00:02:18.300,138327.33333333334,3.396773636341095,-9.543288230895996,-2.7170198361078897
1970-01-01 00:02:18.400,138420.0,4.381987571716309,-9.23443603515625,-4.346673011779785
1970-01-01 00:02:18.500,138539.33333333334,-1.095945805311203,-10.2120680809021,-0.16041151434183115
1970-01-01 00:02:18.600,138665.66666666666,1.1354501247406006,-9.847351551055908,2.101710041364034
1970-01-01 00:02:18.700,138754.0,0.2041056901216507,-9.988609313964844,1.049857497215271
1970-01-01 00:02:18.800,138850.0,2.018910646438598,-9.497797966003418,1.2054805755615234
1970-01-01 00:02:18.900,138949.0,0.3309983909130096,-10.254365921020508,0.6045359373092651
1970-01-01 00:02:19.000,139073.66666666666,4.1641154289245605,-10.68053388595581,1.6304513812065125
1970-01-01 00:02:19.100,139163.66666666666,1.9327192306518555,-9.39365029335022,0.4776432514190674
1970-01-01 00:02:19.200,139267.0,0.5033808946609497,-8.487444877624512,1.3467384576797483
1970-01-01 00:02:19.300,139340.5,0.8900444805622101,-10.793061256408691,-0.7422025054693222
1970-01-01 00:02:19.400,139465.0,1.872864246368408,-8.394071578979492,-0.0107739074155688
1970-01-01 00:02:19.500,139545.33333333334,2.519298811753591,-6.936800479888916,-2.555012265841166
1970-01-01 00:02:19.600,139663.0,4.901529312133789,-11.18092155456543,-3.970783472061157
1970-01-01 00:02:19.700,139707.0,1.2192472219467163,-9.93593692779541,-3.614047527313232
1970-01-01 00:02:19.800,139821.0,1.349731206893921,-9.630676507949829,1.3826514780521393
1970-01-01 00:02:19.900,139907.0,3.338115692138672,-10.156203269958496,1.8136078119277956
1970-01-01 00:02:20.000,140020.0,0.8421604260802269,-8.653841972351074,0.38546646386384964
1970-01-01 00:02:20.100,140168.66666666666,0.7164648473262787,-9.727641582489014,0.3986345827579498
1970-01-01 00:02:20.200,140241.0,0.6877344250679016,-9.928754806518556,1.9045875072479248
1970-01-01 00:02:20.300,140342.0,1.5352818369865417,-10.158597469329834,2.165555477142334
1970-01-01 00:02:20.400,140441.0,-0.8086416125297546,-12.169727325439451,0.1544260084629058
1970-01-01 00:02:20.500,140535.5,0.4602852761745453,-8.365341186523438,-0.2382230758666992
1970-01-01 00:02:20.600,140634.0,2.5121161937713623,-10.57997703552246,-0.50876784324646
1970-01-01 00:02:20.700,140733.5,0.3573346138000488,-10.746374130249023,1.543063044548035
1970-01-01 00:02:20.800,140833.5,0.9415197968482972,-9.2033109664917,0.0490811355412006
1970-01-01 00:02:20.900,140953.0,2.3720552921295166,-8.133103132247925,-2.1224597692489624
1970-01-01 00:02:21.000,141070.5,-0.3800795078277588,-10.855310440063477,-3.982754468917847
1970-01-01 00:02:21.100,141170.0,-1.9267338514328003,-10.261548042297363,0.6524199843406677
1970-01-01 00:02:21.200,141268.5,1.5161281824111938,-6.909666061401367,0.628477931022644
1970-01-01 00:02:21.300,141368.0,1.6980875730514526,-9.39245319366455,0.7266402244567871
1970-01-01 00:02:21.400,141467.0,0.8529343605041504,-9.57441234588623,0.7410054206848145
1970-01-01 00:02:21.500,141538.75,1.4395137627919514,-9.726843198140463,0.2326366019745668
1970-01-01 00:02:21.600,141665.0,1.590348482131958,-10.326191902160645,0.7649474143981934
1970-01-01 00:02:21.700,141707.0,2.962226152420044,-10.723628997802734,0.997184991836548
1970-01-01 00:02:21.800,141805.0,3.840898036956787,-11.587936401367188,0.2885012924671173
1970-01-01 00:02:21.900,141903.5,0.1945288926362991,-9.141061782836914,1.581370234489441
1970-01-01 00:02:22.000,142002.0,3.048417329788208,-11.815385818481444,-0.9062053561210632
1970-01-01 00:02:22.100,142101.5,0.8984242081642151,-9.560047626495361,0.6524199843406677
1970-01-01 00:02:22.200,142213.66666666666,1.0743979811668396,-7.606378714243571,-1.9405004978179932
1970-01-01 00:02:22.300,142353.0,5.486911773681641,-9.340977907180786,-3.3566707372665405
1970-01-01 00:02:22.400,142440.0,-0.087986908853054,-10.500968933105469,-2.788047790527344
1970-01-01 00:02:22.500,142529.0,-0.5859808921813965,-5.183446884155273,0.1999158412218094
1970-01-01 00:02:22.600,142628.5,1.2683283984661102,-9.567229747772217,1.4760253727436066
1970-01-01 00:02:22.700,142761.0,0.4902127720415593,-9.326612949371338,0.48722004890441895
1970-01-01 00:02:22.800,142840.0,0.6470330357551575,-9.485827445983888,0.4082113802433014
1970-01-01 00:02:22.900,142954.0,2.3983914852142334,-10.942698955535889,1.1851298809051514
1970-01-01 00:02:23.000,143040.5,3.4386723041534424,-12.246341705322266,-0.3411737382411957
1970-01-01 00:02:23.100,143146.33333333334,1.4897919930517673,-11.71004056930542,-0.19033902883529658
1970-01-01 00:02:23.200,143271.0,1.7627309560775757,-10.946290016174316,0.333991140127182
1970-01-01 00:02:23.300,143329.0,0.38247372955083847,-8.445546388626099,0.2549824882298708
1970-01-01 00:02:23.400,143469.5,-0.6697779297828674,-5.659892797470093,-1.725022315979004
1970-01-01 00:02:23.500,143533.66666666666,4.563946962356567,-11.384428977966309,-4.179877122243245
1970-01-01 00:02:23.600,143668.5,1.1378443241119385,-11.836933135986328,1.8590975999832156
1970-01-01 00:02:23.700,143752.0,-0.6123170753320059,-6.026205778121948,0.4118026942014694
1970-01-01 00:02:23.800,143866.0,3.266289710998535,-8.604761123657227,1.646013617515564
1970-01-01 00:02:23.900,143908.0,0.1490390598773956,-9.287108421325684,0.6404489278793335
1970-01-01 00:02:24.000,144023.0,0.8661024868488312,-10.120290279388428,1.2018892765045166
1970-01-01 00:02:24.100,144107.5,1.5137340426445007,-10.223240852355955,0.4991910457611084
1970-01-01 00:02:24.200,144247.0,2.6884889602661133,-9.885658899943033,-0.18475256860256203
1970-01-01 00:02:24.300,144364.0,-2.2403743267059326,-9.703699111938477,0.6141127347946167
1970-01-01 00:02:24.400,144407.0,3.184886693954468,-12.200851440429688,-0.7745242714881897
1970-01-01 00:02:24.500,144520.5,0.6757634282112122,-8.640674114227295,-0.429759219288826
1970-01-01 00:02:24.600,144641.0,0.43035776168107986,-6.2045738697052,-1.3946225345134735
1970-01-01 00:02:24.700,144741.0,3.974973440170288,-10.682928085327148,-4.77044677734375
1970-01-01 00:02:24.800,144852.33333333334,0.5859808921813965,-10.80622911453247,-0.788889467716217
1970-01-01 00:02:24.900,144942.0,1.6095020771026611,-8.461109161376953,-1.4736311435699463
1970-01-01 00:02:25.000,145035.5,2.042852640151977,-11.21444034576416,2.8431146144866943
1970-01-01 00:02:25.100,145135.0,-0.0616506934165954,-10.055646896362305,-0.5422866940498352
1970-01-01 00:02:25.200,145247.66666666666,1.3617022037506104,-9.678560256958008,0.3758896589279175
1970-01-01 00:02:25.300,145341.0,2.172139406204224,-10.211270332336426,0.8271966576576233
1970-01-01 00:02:25.400,145441.0,1.8596962094306946,-10.878055572509766,1.077390730381012
1970-01-01 00:02:25.500,145544.0,0.1083376258611679,-10.182539939880373,-2.103306293487549
1970-01-01 00:02:25.600,145641.5,3.1178491711616516,-11.966219902038574,1.3539210706949234
1970-01-01 00:02:25.700,145769.5,-0.0736217051744461,-8.767566680908203,1.0522516965866089
1970-01-01 00:02:25.800,145868.5,-0.3489548861980438,-7.187393426895142,-0.3100491166114807
1970-01-01 00:02:25.900,145968.0,2.629431962966919,-8.959102630615234,-2.93888258934021
1970-01-01 00:02:26.000,146007.5,3.931877851486206,-8.513781547546387,-3.286041736602783
1970-01-01 00:02:26.100,146107.0,2.04045844078064,-9.119514465332031,-0.2238578647375106
1970-01-01 00:02:26.200,146206.0,-0.4135983288288116,-6.710947513580322,-0.1185129806399345
1970-01-01 00:02:26.300,146305.0,3.5631706714630127,-10.44590187072754,2.5270798206329346
1970-01-01 00:02:26.400,146404.0,-0.0951695144176483,-9.854534149169922,-0.1304839998483657
1970-01-01 00:02:26.500,146519.5,0.6661866158246994,-9.660604000091553,0.8559270799160004
1970-01-01 00:02:26.600,146608.5,1.288679122924805,-10.050858497619627,0.8990227580070496
1970-01-01 00:02:26.700,146714.66666666666,2.321777105331421,-10.21964979171753,0.0885854959487915
1970-01-01 00:02:26.800,146840.0,-0.5907692909240723,-8.741230010986328,0.4513070285320282
1970-01-01 00:02:26.900,146939.0,2.3325510025024414,-13.4506254196167,-0.788889467716217
1970-01-01 00:02:27.000,147038.5,0.4746504724025726,-9.83298683166504,-0.0538695380091667
1970-01-01 00:02:27.100,147137.5,-0.3705027103424072,-5.871779680252075,-1.1192892789840698
1970-01-01 00:02:27.200,147255.5,1.6633716225624084,-7.7404539585113525,-4.270058751106262
1970-01-01 00:02:27.300,147356.0,-1.060032844543457,-8.118738174438477,-0.6931213736534119
1970-01-01 00:02:27.400,147455.0,-2.259527921676636,-4.991910457611084,0.1975216418504715
1970-01-01 00:02:27.500,147525.0,2.813785552978516,-9.593565940856934,0.767341673374176
1970-01-01 00:02:27.600,147653.66666666666,0.2579752504825592,-9.631873607635498,0.8120333949724833
1970-01-01 00:02:27.700,147772.5,0.778714120388031,-9.44752025604248,0.3148375153541565
1970-01-01 00:02:27.800,147841.5,1.3964181542396545,-9.903615474700928,1.091755986213684
1970-01-01 00:02:27.900,147970.5,3.848080635070801,-12.090718269348145,0.2789244949817657
1970-01-01 00:02:28.000,148048.5,-0.22206220403313634,-8.040926694869995,1.2473790645599365
1970-01-01 00:02:28.100,148188.0,1.568800687789917,-13.177685737609863,-0.8319851160049438
1970-01-01 00:02:28.200,148288.0,0.1490390598773956,-8.688557624816895,-0.4465186297893524
1970-01-01 00:02:28.300,148341.5,-0.2651578485965729,-4.197035789489746,-0.3746925592422485
1970-01-01 00:02:28.400,148408.0,1.082777738571167,-3.670311212539673,-1.5406688451766968
1970-01-01 00:02:28.500,148517.0,3.356072187423706,-11.529677391052246,-4.696226477622986
1970-01-01 00:02:28.600,148608.0,1.8848352432250977,-13.309367179870604,-2.172738075256348
1970-01-01 00:02:28.700,148716.66666666666,0.166995570063591,-8.55687689781189,1.2533645629882812
1970-01-01 00:02:28.800,148823.0,-0.2148796021938324,-8.932766914367676,0.3220201432704925
1970-01-01 00:02:28.900,148922.5,1.792658507823944,-9.253589630126951,0.934935748577118
1970-01-01 00:02:29.000,149048.0,0.7846995890140533,-9.8784761428833,1.1683704257011414
1970-01-01 00:02:29.100,149141.0,2.3756465911865234,-9.976638793945312,2.021903276443481
1970-01-01 00:02:29.200,149256.5,1.5448585748672485,-10.29746150970459,0.6129156202077866
1970-01-01 00:02:29.300,149369.5,0.314238965511322,-10.514136791229248,0.4441244378685951
1970-01-01 00:02:29.400,149447.0,0.3932476341724396,-10.273519515991213,-0.4824316501617431
1970-01-01 00:02:29.500,149551.33333333334,0.38726212456822395,-7.335833787918091,-0.5925649255514145
1970-01-01 00:02:29.600,149648.0,0.8601169586181641,-6.236895561218262,-1.80881941318512
1970-01-01 00:02:29.700,149748.0,3.5296518802642822,-10.852916240692139,-4.431667327880859
1970-01-01 00:02:29.800,149848.0,0.0365115776658058,-12.538434028625488,0.50876784324646
1970-01-01 00:02:29.900,149948.5,0.7140706777572632,-10.004171371459961,0.976834237575531
1970-01-01 00:02:30.000,150072.5,1.2910733222961426,-8.42040729522705,1.8303672075271609
1970-01-01 00:02:30.100,150136.66666666666,1.817797601222992,-9.454702695210775,0.4405331164598465
1970-01-01 00:02:30.200,150271.0,1.149815320968628,-9.318233489990234,0.3794809579849243
1970-01-01 00:02:30.300,150359.66666666666,2.003348231315613,-10.389238993326822,1.4640543162822723
1970-01-01 00:02:30.400,150448.0,4.6285905838012695,-12.75151824951172,0.812831461429596
1970-01-01 00:02:30.500,150522.66666666666,1.227626919746399,-10.947487354278564,0.9983820617198944
1970-01-01 00:02:30.600,150627.0,2.935889720916748,-14.46576690673828,1.4903905391693115
1970-01-01 00:02:30.700,150714.5,0.5201402902603149,-9.639056205749512,0.5997475385665894
1970-01-01 00:02:30.800,150834.33333333334,0.9654618352651596,-7.41484260559082,-1.4867992997169497
1970-01-01 00:02:30.900,150915.0,0.982221245765686,-8.286332130432129,-2.869450807571411
1970-01-01 00:02:31.000,151026.0,-1.0851719379425049,-12.192471981048584,-2.9017724990844727
1970-01-01 00:02:31.100,151143.0,1.853710651397705,-10.251971244812012,-0.8846575021743774
1970-01-01 00:02:31.200,151242.5,0.9367313981056212,-9.818621635437012,-0.7481880187988281
1970-01-01 00:02:31.300,151341.0,2.16495680809021,-9.17936897277832,0.1879448294639587
1970-01-01 00:02:31.400,151440.5,1.0779893398284912,-9.435548782348633,0.5279214978218079
1970-01-01 00:02:31.500,151547.33333333334,1.459465463956197,-9.771934032440186,0.512359157204628
1970-01-01 00:02:31.600,151648.5,-0.2890998423099518,-10.316615104675291,1.4712369441986084
1970-01-01 00:02:31.700,151759.5,2.3469161987304688,-11.140220642089844,1.7322049140930176
1970-01-01 00:02:31.800,151876.0,-0.3920505344867706,-8.813055992126465,-0.3746925592422485
1970-01-01 00:02:31.900,151975.5,1.7244237661361694,-12.271480560302734,1.9045875072479248
1970-01-01 00:02:32.000,152074.5,1.549647092819214,-10.79545545578003,0.0993593707680702
1970-01-01 00:02:32.100,152174.0,0.0269347690045833,-7.038952827453613,-1.0522516965866089
1970-01-01 00:02:32.200,152273.0,1.6502034664154053,-5.822698593139648,-2.845508813858032
1970-01-01 00:02:32.300,152315.0,2.9741971492767334,-12.06198787689209,-3.137601375579834
1970-01-01 00:02:32.400,152412.0,0.7332242727279663,-10.103530883789062,-3.245340347290039
1970-01-01 00:02:32.500,152511.5,-1.083974838256836,-8.993818521499634,-1.2318167686462402
1970-01-01 00:02:32.600,152610.0,2.7515363693237305,-12.198457717895508,1.8997989892959597
1970-01-01 00:02:32.700,152709.5,0.7858967185020447,-9.914389610290527,-0.7410054206848145
1970-01-01 00:02:32.800,152828.0,1.6262614727020264,-9.568427085876465,0.3016694094985723
1970-01-01 00:02:32.900,152914.5,1.247977614402771,-10.143035888671875,1.016338586807251
1970-01-01 00:02:33.000,153034.0,2.332551062107086,-10.579179128011068,-0.5781996846199036
1970-01-01 00:02:33.100,153145.5,1.7028759717941284,-10.022128105163574,-0.606930136680603
1970-01-01 00:02:33.200,153244.5,5.473743677139282,-11.8225679397583,2.5797524452209477
1970-01-01 00:02:33.300,153344.0,1.6238672733306885,-10.280701637268066,1.3946224451065063
1970-01-01 00:02:33.400,153444.5,0.6039373874664307,-8.877699851989746,0.1280897855758667
1970-01-01 00:02:33.500,153562.5,3.102286785840988,-9.187748908996582,-2.597708821296692
1970-01-01 00:02:33.600,153648.0,6.769006729125977,-11.8441162109375,-2.493561029434204
1970-01-01 00:02:33.700,153754.0,0.5153518989682198,-10.362104892730713,1.3742717206478121
1970-01-01 00:02:33.800,153879.0,1.9255367517471316,-10.26633644104004,2.4145524501800537
1970-01-01 00:02:33.900,153978.5,-0.0377086773514747,-9.42597198486328,-0.089782565832138
1970-01-01 00:02:34.000,154077.5,1.0420763492584229,-9.362525463104248,0.9014169573783876
1970-01-01 00:02:34.100,154159.0,0.9175777832667033,-9.884461879730225,0.365115761756897
1970-01-01 00:02:34.200,154276.0,1.6382324695587158,-9.852140426635742,1.3922282457351685
1970-01-01 00:02:34.300,154359.0,2.699661840995153,-11.76750135421753,0.842758983373642
1970-01-01 00:02:34.400,154474.0,-1.2108675241470337,-9.011775016784668,1.0115501880645752
1970-01-01 00:02:34.500,154524.33333333334,1.0289082080125809,-12.266692161560059,-0.5063736438751221
1970-01-01 00:02:34.600,154634.5,-0.4830302000045776,-10.843339920043944,0.6045359373092651
1970-01-01 00:02:34.700,154713.0,0.2352303117513656,-7.017405033111572,-0.5039794445037842
1970-01-01 00:02:34.800,154828.5,2.56598562002182,-9.380482196807861,-3.5996822714805603
1970-01-01 00:02:34.900,154914.0,3.426701068878174,-13.82172679901123,-5.421669960021973
1970-01-01 00:02:35.000,155009.0,0.5871779918670654,-13.127408027648926,-1.1049240827560425
1970-01-01 00:02:35.100,155109.0,1.2575544118881226,-7.314286231994629,-0.0131681095808744
1970-01-01 00:02:35.200,155233.66666666666,1.0456675961613655,-9.1554274559021,1.8710685968399048
1970-01-01 00:02:35.300,155353.5,0.735618457198143,-9.386467933654785,0.7733271420001984
1970-01-01 00:02:35.400,155446.5,1.5568296909332275,-9.7096848487854,0.4704606235027313
1970-01-01 00:02:35.500,155565.0,1.8489222526550293,-10.468647003173828,1.4772224426269531
1970-01-01 00:02:35.600,155646.5,3.072359323501587,-12.519280433654783,0.8152256608009338
1970-01-01 00:02:35.700,155755.33333333334,0.40402155369520193,-11.068394184112549,-0.5159504562616348
1970-01-01 00:02:35.800,155862.0,0.7715315222740173,-12.100295066833496,-1.3180080652236938
1970-01-01 00:02:35.900,155946.5,0.5333084240555762,-8.153453826904297,-0.8942343294620514
1970-01-01 00:02:36.000,156060.0,0.6302735805511475,-5.688623428344727,-1.523909330368042
1970-01-01 00:02:36.100,156169.0,2.154183104634285,-10.345345497131348,-3.602076530456543
1970-01-01 00:02:36.200,156278.5,-0.578798234462738,-12.72757625579834,-1.456871747970581
1970-01-01 00:02:36.300,156377.0,1.4395138025283811,-7.587224960327148,-0.4728548228740692
1970-01-01 00:02:36.400,156477.0,2.121861219406128,-9.002198219299316,1.2030863761901855
1970-01-01 00:02:36.500,156517.33333333334,0.8158242404460907,-8.829815864562988,-0.06464344635605815
1970-01-01 00:02:36.600,156617.5,0.6889315247535706,-9.141061782836914,0.4680664241313934
1970-01-01 00:02:36.700,156734.0,1.8656816482543945,-10.190919876098633,0.8655038885772229
1970-01-01 00:02:36.800,156848.0,2.655768156051636,-12.234370231628418,-1.7585411071777344
1970-01-01 00:02:36.900,156913.0,0.25438392162323,-11.26950740814209,-0.9636662006378174
1970-01-01 00:02:37.000,157025.0,2.5033374230066934,-9.89044713973999,0.9684546142816542
1970-01-01 00:02:37.100,157113.5,0.4411316514015198,-8.774748802185059,-0.3292027413845062
1970-01-01 00:02:37.200,157223.0,1.380855768918991,-7.3657615184783936,-1.5997257431348164
1970-01-01 00:02:37.300,157329.5,2.8401217460632324,-7.343016624450684,-2.694674015045166
1970-01-01 00:02:37.400,157428.5,3.0867245197296143,-10.735600471496582,-2.608482837677002
1970-01-01 00:02:37.500,157549.5,0.2041056752204896,-10.619481801986694,0.22146368026733398
1970-01-01 00:02:37.600,157646.5,1.2072762250900269,-9.827001094818115,1.6077064275741575
1970-01-01 00:02:37.700,157762.5,0.8864532047882675,-8.956708431243896,1.2485761940479279
1970-01-01 00:02:37.800,157846.5,0.1681926697492599,-9.53849983215332,1.8255788087844849
1970-01-01 00:02:37.900,157956.33333333334,1.7806875109672546,-9.477447509765625,1.4006080031394958
1970-01-01 00:02:38.000,158064.0,2.844910144805908,-9.418789863586426,1.9093759059906008
1970-01-01 00:02:38.100,158162.0,0.6973112225532532,-11.013327598571776,0.5542576909065247
1970-01-01 00:02:38.200,158262.5,-0.1813607811927795,-10.776301383972168,-0.1089361757040023
1970-01-01 00:02:38.300,158346.5,3.1729158759117126,-11.0887451171875,1.8315642476081848
1970-01-01 00:02:38.400,158460.0,4.063559055328369,-10.630255699157717,3.76488208770752
1970-01-01 00:02:38.500,158547.33333333334,0.6127161383628846,-8.57204008102417,0.7042943326135477
1970-01-01 00:02:38.600,158678.0,0.4507084786891937,-7.156269073486328,-1.521515130996704
1970-01-01 00:02:38.700,158741.33333333334,4.488529682159424,-10.715250015258787,-3.0430303812026978
1970-01-01 00:02:38.800,158847.0,-1.8908207416534424,-14.64772605895996,-0.3507505357265472
1970-01-01 00:02:38.900,158940.66666666666,-0.0951695162802934,-9.568427085876465,-0.5829881429672241
1970-01-01 00:02:39.000,159046.5,0.196923092007637,-8.89685344696045,-0.4082113802433014
1970-01-01 00:02:39.100,159167.0,0.16500039895375562,-9.45111083984375,0.5147533677518368
1970-01-01 00:02:39.200,159246.5,0.8888474106788635,-10.012551307678224,0.788889467716217
1970-01-01 00:02:39.300,159314.5,0.7044938206672668,-10.24000072479248,0.4058171808719635
1970-01-01 00:02:39.400,159423.0,2.4702175855636597,-10.45547898610433,0.577002601698041
1970-01-01 00:02:39.500,159555.5,1.6849194467067719,-10.544064044952393,0.8511387407779694
1970-01-01 00:02:39.600,159635.0,2.713229179382324,-13.72356414794922,0.8798691034317017
1970-01-01 00:02:39.700,159747.0,0.4854243956506252,-9.399636030197144,0.5231330692768097
1970-01-01 00:02:39.800,159848.0,-0.1693897694349289,-7.307103633880615,-0.0131681095808744
1970-01-01 00:02:39.900,159947.5,1.726817965507507,-6.979097843170166,-3.42490553855896
1970-01-01 00:02:40.000,160046.0,5.95258378982544,-11.281478881835938,-2.960430383682251
1970-01-01 00:02:40.100,160145.66666666666,-1.953070044517517,-9.92396593093872,0.04668693244457245
1970-01-01 00:02:40.200,160264.5,2.825756549835205,-12.054805755615234,2.191891670227051
1970-01-01 00:02:40.300,160334.0,-1.1498153805732727,-9.658209323883057,0.32441432029008865
1970-01-01 00:02:40.400,160481.0,1.710058569908142,-9.787496566772461,0.4369418025016784
1970-01-01 00:02:40.500,160522.33333333334,1.245583415031433,-9.979032516479492,0.5255272835493088
1970-01-01 00:02:40.600,160621.5,1.8489222526550293,-9.793482303619385,1.2557587623596191
1970-01-01 00:02:40.700,160740.0,2.0799627602100372,-11.383232116699219,0.30885202437639236
1970-01-01 00:02:40.800,160833.0,2.6868927478790283,-14.645331382751465,-0.50876784324646
1970-01-01 00:02:40.900,160965.66666666666,1.3150153160095215,-10.05923843383789,-0.07062894105911258
1970-01-01 00:02:41.000,161032.0,-0.0401028767228126,-5.875370979309082,-0.9181763529777528
1970-01-01 00:02:41.100,161164.33333333334,3.1034840270876884,-7.037755727767944,-4.118026912212372
1970-01-01 00:02:41.200,161233.0,1.2096704244613647,-8.31985092163086,-3.26688814163208
